time,seconds_elapsed,z,y,x
1681262544623794700,0.030794677734375,-0.34104105010330676,0.5893132156163454,1.1036422096580267
1681262544633826800,0.040826904296875,-0.5135223538339138,0.4574764953546226,1.230778643274307
1681262544643859000,0.05085888671875,-0.6260023394577204,0.29042072380408646,0.9591332009583711
1681262544653890800,0.060890869140625,-0.6749012487918138,0.20368293607160448,0.47634150095283984
1681262544663922700,0.070922607421875,-0.6755716953992843,0.20768391534127295,0.007172083586454391
1681262544673954800,0.080954833984375,-0.7087900743901729,0.2598235601622611,-0.05670622208416461
1681262544683987000,0.090987060546875,-0.7698835716478526,0.4560445628553629,0.33625556939244267
1681262544694019800,0.101019775390625,-1.1043519653625786,0.6955898165553808,0.7458470086306334
1681262544704051700,0.1110517578125,-1.5336849007725715,0.851573720601946,1.0022276617974042
1681262544714083800,0.121083740234375,-1.4618785785816608,1.2157961051326245,1.3237556176573038
1681262544724116000,0.131115966796875,-1.1016812848486006,1.124627641476318,1.4105880979359149
1681262544734147800,0.14114794921875,-0.982375983249396,-0.014016140794940292,1.1768091526776552
1681262544744179700,0.1511796875,-0.8899281473070383,-0.26743140481747685,0.5871779571533203
1681262544754211800,0.1612119140625,-0.8209300144046544,0.2910726118415594,-0.1436731423974037
1681262544764244700,0.17124462890625,-0.7851753949344158,0.7414484083455055,-0.35756256131529807
1681262544774276600,0.181276611328125,-1.0860890173107385,0.5326715101357549,-0.05192191041707992
1681262544784309000,0.19130908203125,-1.4480138654887675,0.39060214967317874,0.38020693932175637
1681262544794340900,0.2013408203125,-1.5413937215842306,0.427703726772964,0.7050275069862604
1681262544804372700,0.211372802734375,-1.5542225157581269,0.10797609833329916,0.5787637645512819
1681262544814404600,0.221404541015625,-1.544366746045649,-0.3485013029813766,-0.09289923297166824
1681262544824437000,0.23143701171875,-1.2525472613595425,-0.47966706517897545,-0.8727829512387514
1681262544834470000,0.241469970703125,-0.6108261053748428,-0.2650263164371252,-1.0728700547754764
1681262544844501800,0.251501708984375,0.07968217013254761,-0.3492563591323793,-0.2304536002278328
1681262544854534000,0.261533935546875,0.6190816733490675,-0.07146429468705319,1.6327262897610664
1681262544864565800,0.271565673828125,0.3717822253257036,0.32748343019820747,3.6107314133256674
1681262544874598000,0.281597900390625,-0.8997054449558257,0.318750015579164,3.584940553987026
1681262544884629800,0.291629638671875,-1.7579297094881534,-0.050827283580787475,1.8444395336836574
1681262544894663000,0.301662841796875,-1.5863398016393184,-0.712257896631211,-0.17146891181766985
1681262544904694800,0.31169482421875,-0.6661059479176997,-0.9575069879960268,-1.4183131392300128
1681262544914726700,0.3217265625,1.3507096755564212,-0.8215396707355975,-2.4932939025491474
1681262544924758800,0.3317587890625,1.9595500139415263,-0.5199497565329074,-1.9454227043896912
1681262544934791000,0.341791015625,1.7544272543251513,-0.11149594302251935,-0.9176876763701438
1681262544944822800,0.35182275390625,1.0990401226900517,0.066998483517766,0.07043254961967468
1681262544954854700,0.361854736328125,0.2872575835980475,0.15281323812119663,0.8129881154894828
1681262544964887800,0.3718876953125,-0.19862974433526395,0.07637764869444072,0.7218605683654546
1681262544974919700,0.381919677734375,-0.07186579729318618,-0.018165332896262407,0.2998796031534672
1681262544984951800,0.391951904296875,0.5708449542507529,-0.0035003362711519,-0.17664894480407237
1681262544994984000,0.40198388671875,1.9804396572351455,-0.4196474076978862,-0.9834422973066568
1681262545005015800,0.412015869140625,3.1149919689416885,-0.7740663372252136,-1.2443442272901535
1681262545015047700,0.422047607421875,3.493348019699752,-0.835186795555055,-1.0873416477203368
1681262545025079800,0.432079833984375,3.4032170823976395,-0.7814644115872681,-0.6336877793937921
1681262545035113000,0.442113037109375,1.630556252245605,-0.6964122388541698,0.03151975837945938
1681262545045144800,0.452144775390625,-0.8485738081336021,-0.5538372669570147,0.22966098854541778
1681262545055176700,0.4621767578125,-1.629882590767741,-0.49209473120607433,-0.48100130945742126
1681262545065208800,0.472208740234375,-1.6991355752140282,-0.669191200581938,-0.9145119689434766
1681262545075241000,0.482240966796875,-0.7221785482734442,-0.6649424570962786,-1.0091963317662478
1681262545085272800,0.49227294921875,1.8555027794897556,-0.7256452014707029,-1.5505401739835738
1681262545095304700,0.5023046875,3.867373640038073,-0.757841397807002,-1.4690759427398443
1681262545105337900,0.512337890625,2.8933170107141137,-0.30873138345517215,-0.7514829686909914
1681262545115369700,0.52236962890625,1.2854694338828325,0.5496390846148133,-0.014037293180823326
1681262545125401900,0.53240185546875,0.3557295006692409,1.0956464616637676,0.5226531702727079
1681262545135434000,0.54243408203125,-0.2901642648249864,1.1551941907841712,0.575031592285633
1681262545145465900,0.5524658203125,-0.6385124230712652,1.038956240866333,0.31716917612850665
1681262545155497700,0.562497802734375,-0.26443887193799015,0.8369508826181292,0.11833645656704903
1681262545165529600,0.572529541015625,0.13904782068431376,0.5910771565489471,0.0050339025139808655
1681262545175562500,0.5825625,0.41805005550384516,0.2699469678349793,0.1351210026293993
1681262545185594400,0.592594482421875,0.47928047701418397,-0.27619075759537515,0.1739291644513607
1681262545195626200,0.602626220703125,0.5199456648796796,-0.7596724126264452,-0.056979778328537935
1681262545205658000,0.612658203125,0.4681038339614868,-1.0391324011508374,-0.10374737472236156
1681262545215690500,0.6226904296875,0.2959486934453249,-1.2000094110012054,-0.07364391288161277
1681262545225722400,0.632722412109375,0.004428337836265564,-1.0743963144946842,-0.41213469398021696
1681262545235754200,0.642754150390625,-0.2290104156821966,-0.565590613919124,-0.4208662819683551
1681262545245787400,0.652787353515625,-0.7232055532336235,-0.12913381797857582,-0.03851239374577999
1681262545255819300,0.6628193359375,-1.3998872557014226,0.1612254579618573,0.5333195257157087
1681262545265851100,0.67285107421875,-1.5159037448883055,0.37748124068491157,1.1941525016665457
1681262545275883300,0.68288330078125,-0.46857612764835355,0.7454026258639991,1.7779677043884992
1681262545285915400,0.692915283203125,0.9743570735752582,0.9702885089620947,1.7045242825150488
1681262545295947300,0.702947265625,2.2326427324563265,0.9896213512677698,1.1551403417050838
1681262545305980200,0.712980224609375,2.612739197140932,0.9028129825171083,0.29820728602707386
1681262545316012300,0.72301220703125,2.057217191967368,0.7565332378178834,-0.8502864572703838
1681262545326044400,0.73304443359375,0.4858589786216616,0.4608073933430016,-1.5738865627795458
1681262545336076300,0.743076171875,-1.4676748437702656,0.37591347991153595,-1.5360072062402963
1681262545346108200,0.753108154296875,-1.936763889376819,0.7774570756420492,-1.3391893336325884
1681262545356140300,0.763140380859375,-0.8336275834143161,0.9910567178331315,-1.2150602651387452
1681262545366172400,0.77317236328125,0.42268414504528046,0.8681262114740907,-0.7400953132361173
1681262545376205300,0.783205322265625,1.491962020547688,0.6112833476230501,-0.7448153274953365
1681262545386237400,0.793237548828125,2.003599875809252,0.2847328874260187,-0.8356973754256963
1681262545396269300,0.803269287109375,1.6798691492080688,-0.10233736179396509,-0.7902712567687035
1681262545406301200,0.81330126953125,0.9747685769855976,-0.2645133984789252,-0.5156581968188285
1681262545416333300,0.823333251953125,0.20059490692839024,0.02275419505648315,0.01883504885137081
1681262545426365400,0.833365478515625,-0.33489714052081104,-0.006862725376337767,0.23247487692236898
1681262545436397300,0.843397216796875,-0.5050830633232369,-0.19937004130855202,0.20087562356591224
1681262545446430200,0.85343017578125,-0.5819640949625522,-0.0806116330023855,0.033524668461084366
1681262545456462300,0.86346240234375,-0.6273299347996711,-0.1746590861611068,-0.25606968752145765
1681262545466494200,0.873494140625,-0.20175825161933897,-0.48253502183072267,-0.5830541552215814
1681262545476526300,0.8835263671875,0.3863351033458486,-0.6621984921503812,-0.8570546362310647
1681262545486558200,0.89355810546875,0.9864041427869349,-0.8530455467201769,-0.919315569832921
1681262545496590300,0.90359033203125,1.342302497217059,-0.8494926034789532,-0.4833873278111219
1681262545506623200,0.913623291015625,1.1417688189566135,-0.5324160010047256,0.0965869815737009
1681262545516655000,0.923655029296875,0.8379127133876085,-0.17177863535396753,0.44614100847840304
1681262545526687500,0.9336875,0.6146615918844938,0.02508724111393094,0.5616249982237815
1681262545536719400,0.94371923828125,0.10399930365681648,0.09872202084101736,0.5050941327065229
1681262545546751200,0.953751220703125,-0.6451590214788914,0.04645122392103076,0.3161737353503704
1681262545556783000,0.963783203125,-0.9722159698933363,-0.008785802393406629,0.23343407734334468
1681262545566815500,0.9738154296875,-0.7169336333572864,0.06509250376597046,0.3764408647865057
1681262545576848400,0.983848388671875,-0.4213922786038369,0.13693674681447446,0.5202957934916019
1681262545586880300,0.99388037109375,-0.08974858692102133,0.1511835180275142,0.6774263833552598
1681262545596912400,1.003912353515625,0.3116553811430931,0.1383224290192127,0.8130529974192381
1681262545606944300,1.0139443359375,0.5482424426246434,0.21976218340881168,0.9751251353383064
1681262545616976400,1.023976318359375,0.4802535598300397,0.27428346266932785,1.007209541863203
1681262545627008300,1.03400830078125,0.44379692957028744,0.21599223641604184,0.9276339008450507
1681262545637041400,1.04404150390625,0.5703262641388923,0.1777299449738115,0.7186287468373775
1681262545647073300,1.0540732421875,0.4554566799648106,0.13103051844537258,0.4717670326441526
1681262545657105200,1.064105224609375,0.036439094603061675,0.12127755152024328,0.27840368440449237
1681262545667137300,1.07413720703125,-0.37633265517167747,0.13073394665159285,0.127296008092165
1681262545677169400,1.08416943359375,-0.5603746328365058,0.05023147311210632,0.10046996048688887
1681262545687201300,1.094201171875,-0.6188145468454808,-0.09147015001662075,0.18292378728985786
1681262545697234200,1.104234130859375,-0.5689188084937632,-0.10835121525600552,0.36523733372688294
1681262545707266300,1.114266357421875,-0.47702436865046616,-0.14218188092634082,0.4064256686836481
1681262545717298200,1.124298095703125,-0.1470242063909769,-0.13862572281472385,0.5881798276722431
1681262545727330300,1.134330322265625,0.39682080499231814,-0.2568776429034769,0.6683446667551994
1681262545737362400,1.144362548828125,0.7906080144423991,-0.3409939230259508,0.5854232224404812
1681262545747394300,1.154394287109375,0.6958633727997541,-0.3214956610254943,0.25346798059046266
1681262545757426200,1.16442626953125,0.3919289412975311,-0.24060426123365758,-0.08597440214455127
1681262545767459000,1.174458984375,0.06518295852839946,-0.12922602630667387,-0.18119944771528243
1681262545777491500,1.184491455078125,-0.18735022542998195,-0.011243205482885241,-0.2592816353052854
1681262545787523300,1.1945234375,-0.23193061397783457,0.07052059322930872,-0.27107611799538134
1681262545797555200,1.20455517578125,-0.1788221971899271,0.16990341606661677,-0.17490356244146824
1681262545807587300,1.21458740234375,-0.1544226460792124,0.21418241051509976,-0.12444938648939131
1681262545817619200,1.224619140625,-0.11951952887177467,0.3319393136285245,0.023349895927309988
1681262545827652000,1.234652099609375,-0.24790742385387418,0.41337424571253356,0.23197218809723852
1681262545837684200,1.244684326171875,-0.44266880232319233,0.4663420849859714,0.48274201564490793
1681262545847716400,1.25471630859375,-0.6620141485594213,0.4299287824112922,0.6310743820250034
1681262545857748200,1.264748291015625,-0.7116178451620042,0.37148221946582194,0.5439063861817122
1681262545867780000,1.274780029296875,-0.594225391446799,0.3184820853579789,0.372958283367753
1681262545877812500,1.2848125,-0.4946030607651919,0.20339257482290266,0.2789987276881933
1681262545887845400,1.294845458984375,-0.25890578773021694,0.03757036365531385,0.18959201300740242
1681262545897877200,1.304877197265625,-0.05858779804706573,-0.08405505145452916,0.06257073020339012
1681262545907909000,1.3149091796875,-0.0955669178109616,-0.22098463787585496,-0.09096797264814377
1681262545917941200,1.324941162109375,-0.0602267243605107,-0.2514043260589242,-0.20352818390130994
1681262545927973400,1.334973388671875,-0.1234866058718413,-0.3800295369282365,-0.3631517596244812
1681262545938005200,1.345005126953125,-0.2289846967190504,-0.37553017968237395,-0.45389702943265436
1681262545948037400,1.355037353515625,-0.3750742526084184,-0.261811446043849,-0.39391397763490676
1681262545958070300,1.3650703125,-0.5014278652839362,-0.22178419075571,-0.2647732184588909
1681262545968102100,1.37510205078125,-0.455506729651615,-0.21975443849377332,-0.21439093869924544
1681262545978134300,1.38513427734375,-0.2873672545175999,-0.15670856505930422,-0.04349485833346844
1681262545988166400,1.39516650390625,-0.2773392700433731,-0.10198131489790975,0.10873743809461593
1681262545998198300,1.4051982421875,-0.17050971139669419,-0.14794541288912297,0.0352571913421154
1681262546008230100,1.415230224609375,0.03448686455674469,-0.23042167071960865,-0.24633213736116885
1681262546018263300,1.42526318359375,0.20165464511439202,-0.21478658695332706,-0.4042401413381099
1681262546028295200,1.435295166015625,0.1618815837830305,-0.19929200763627886,-0.43601708934903144
1681262546038327300,1.445327392578125,0.10565993034541606,-0.0962993968039751,-0.1959586254298687
1681262546048359200,1.455359130859375,0.04254661769792437,0.12214198632985353,0.13804361207783222
1681262546058391300,1.465391357421875,-0.058246437263488764,0.25317498899325724,0.3990209453850984
1681262546068423200,1.475423095703125,-0.1298871936291456,0.19931085846722124,0.38279111059606075
1681262546078455300,1.485455322265625,-0.009345262907072901,0.1375169578552246,0.22855624217391013
1681262546088488400,1.495488525390625,0.005569982152059674,0.036084801272675396,-0.003060556614398956
1681262546098520300,1.505520263671875,0.18019991528391838,-0.09305398514196277,-0.2341220596075058
1681262546108552200,1.51555224609375,0.43423495517261324,-0.11011267197057605,-0.3682008597075939
1681262546118584000,1.525583984375,0.5489174923419952,-0.10688253094293176,-0.2813309700280428
1681262546128616400,1.535616455078125,0.4874661215573549,-0.04575659272037446,0.0010983166307210921
1681262546138648300,1.5456484375,0.3356288157962262,0.08360986497029661,0.23131167836189268
1681262546148681200,1.55568115234375,0.09274272723570466,0.14473682610616087,0.3257090409368276
1681262546158713300,1.56571337890625,-0.09695924895219504,0.13546075597777962,0.3196025407552719
1681262546168745200,1.5757451171875,-0.08300437335781753,0.15026150781176983,0.18056290337741374
1681262546178777300,1.58577734375,0.037113632863759995,0.14887443736754358,0.12661504009068011
1681262546188809500,1.5958095703125,0.1714759260803461,0.10197188948243856,0.15577099194824695
1681262546198841300,1.60584130859375,0.2454575464837253,0.10066197592765093,0.20348551380336283
1681262546208874500,1.61587451171875,0.2560254099883139,0.171658881431818,0.32127310431599615
1681262546218906400,1.62590625,0.19919461167640984,0.2213554439496249,0.5174439111918211
1681262546228938200,1.635938232421875,0.17720898983962832,0.2921027586068958,0.860487533289194
1681262546238970600,1.645970703125,0.1866257105477154,0.4518638431046158,1.4373112696886061
1681262546249002500,1.65600244140625,-0.07678915210478007,0.7282289343535899,2.150173123562336
1681262546259034400,1.666034423828125,-0.5814093106240034,1.4522934425041079,3.316493030929565
1681262546269066200,1.676066162109375,-1.1552210057258605,2.2512705682978034,4.723264785447716
1681262546279099400,1.686099365234375,-1.3019932831823826,2.4483820170246062,5.3332858580499884
1681262546289131500,1.696131591796875,-1.237546091582626,2.900959342160821,5.3369163235068315
1681262546299163400,1.706163330078125,-1.0498084742702543,3.066325260928273,5.554390030652284
1681262546309195500,1.716195556640625,-0.5189572383642196,2.341251137343794,4.764235093739629
1681262546319227400,1.726227294921875,0.13005816628187894,1.0780188158407806,2.0732512119233606
1681262546329259500,1.736259521484375,1.1100324952170253,0.09305120866298675,-0.8331576278150081
1681262546339292400,1.74629248046875,1.8459326948508619,-0.2696446238875389,-2.6275720246136185
1681262546349324500,1.756324462890625,1.4411761284232139,-0.7404790518566966,-3.4897435654669997
1681262546359356400,1.7663564453125,0.514635283511877,-1.242785891932249,-3.9248096377015114
1681262546369388300,1.77638818359375,-0.2533689041301608,-1.5452493740990758,-4.215830227094888
1681262546379420400,1.78642041015625,-0.6492039129555225,-1.9801395052447914,-4.796055880892276
1681262546389452500,1.79645263671875,-0.885773365715146,-2.568357619100809,-4.6828737383484835
1681262546399484400,1.806484375,0.2942658549249172,-2.9487624190822244,-4.986507725599408
1681262546409517600,1.816517578125,1.530645971468091,-3.586244622322917,-5.607491506242752
1681262546419549400,1.826549560546875,2.4239988325268027,-4.164672579048574,-5.190900417375564
1681262546429581300,1.836581298828125,3.4046769258171317,-3.6082565476447344,-4.143112196886539
1681262546439613400,1.846613525390625,3.825839560383558,-2.9024875746414063,-3.323284006243944
1681262546449645600,1.8566455078125,3.2074452117115255,-2.567993461963534,-2.8078338992178438
1681262546459677400,1.866677490234375,1.413853237211704,-1.9993828426361082,-2.726289588475227
1681262546469710300,1.87671044921875,-0.03785889827311039,-1.586180227163434,-2.860145101213455
1681262546479742500,1.886742431640625,-0.36775311594009397,-1.5218343039810656,-2.6357711131602524
1681262546489774600,1.896774658203125,0.4196270955622196,-1.2385716352380811,-2.1589771922647953
1681262546499806500,1.906806396484375,1.566926076117158,-0.466812917368114,-1.4180816685616968
1681262546509838300,1.91683837890625,3.201810420694947,0.9818088508859276,0.2632154676228762
1681262546519870500,1.926870361328125,3.875359085834026,2.0469126555740833,1.8913859937757254
1681262546529902300,1.93690234375,2.613669171467423,1.9640895570673047,2.121250395938754
1681262546539935200,1.946935302734375,2.0187661730200053,1.7466675801090894,1.5373235495358704
1681262546549967600,1.956967529296875,1.5468044945865869,1.147131515033543,0.7307189976036548
1681262546559999500,1.96699951171875,-0.1680026970118284,0.7053432949371635,0.4560252736330032
1681262546570031400,1.97703125,-1.6180051059693097,0.4537718686830252,0.6701151835590601
1681262546580063200,1.987063232421875,-2.698150120183825,-0.1225387305624783,0.9608575405329465
1681262546590095600,1.997095703125,-2.9332582682192325,-0.614516776586324,1.217087971574068
1681262546600127500,2.00712744140625,-2.0837363655805587,-0.476342596931383,1.4144944577246903
1681262546610160400,2.017160400390625,-0.30083412739932536,-0.0622114319043234,1.5470903257906437
1681262546620192500,2.027192626953125,1.4740847108125685,-0.3612110008202493,0.7289192547053098
1681262546630224400,2.037224365234375,2.025505125886202,-0.2262330599233508,-0.558791236102581
1681262546640256500,2.047256591796875,1.1362936024159191,-0.43523810433316973,-1.3678712382376192
1681262546650288400,2.057288330078125,-0.7040595387369394,-0.917884587181732,-1.8638298783302305
1681262546660320500,2.067320556640625,-2.652301392200589,-0.9313626390445977,-1.6594827792614697
1681262546670353400,2.077353515625,-3.366835563200712,-0.9300215996991843,-0.3734761697620153
1681262546680385300,2.08738525390625,-2.707386150562763,-0.6844782015629113,0.9578864157676696
1681262546690417400,2.09741748046875,-1.3499609030157327,-0.04540620838012546,1.8408885632038114
1681262546700449500,2.107449462890625,0.25636662464141846,0.1425869545958936,1.8165408884108065
1681262546710481400,2.1174814453125,0.9764829796880483,-1.8521685205005107,0.28033377568423745
1681262546720513300,2.12751318359375,0.28015608102977274,0.5925269900310784,1.181459024310112
1681262546730545400,2.13754541015625,1.3464555252432822,1.228201486262679,2.2416601516485213
1681262546740578300,2.147578369140625,1.4566221193581819,1.2974442415758967,3.1655367457866666
1681262546750610400,2.1576103515625,0.9623726212710142,1.7361323036998508,3.366199603384733
1681262546760642600,2.167642578125,-0.13570493999719618,1.004476536702737,3.3470115033119914
1681262546770674400,2.17767431640625,-0.04038929353356361,1.3206760640814899,3.8244659339427947
1681262546780706300,2.187706298828125,0.8419967678308486,1.4395689854875207,4.327355834603309
1681262546790738400,2.197738525390625,-0.3786310683071613,2.885858219140768,4.368673348897695
1681262546800770600,2.2077705078125,-1.706062744128704,3.023571576350927,4.85287550022304
1681262546810803500,2.217803466796875,-2.218580889356136,3.3241035059332846,4.984976862770319
1681262546820835300,2.22783544921875,-3.690680563831329,3.276408857822418,3.086111326894164
1681262546830867500,2.237867431640625,-3.0532787323504684,2.7955890424117444,1.4632488440215587
1681262546840899600,2.247899658203125,-0.9555442365556954,2.8663118071496485,1.5227397283881903
1681262546850931500,2.257931396484375,-2.2032406968832015,2.6564243173494932,-1.139026242250204
1681262546860963300,2.26796337890625,-0.5395119506150484,0.205246495593898,-5.570035343551635
1681262546870996500,2.27799658203125,1.3182552666753529,-1.8819396816469727,-5.618018160954118
1681262546881028400,2.2880283203125,1.620240902197361,-1.4104679786875842,-6.205526957497001
1681262546891060500,2.298060546875,1.8660738578647373,0.15098003134466706,-4.270878160578012
1681262546901092600,2.308092529296875,-0.20953239275217056,-0.10088555555045604,-1.3809651130884886
1681262546911124500,2.31812451171875,-0.27891572557985783,1.471511207062751,-1.8050509416252374
1681262546921156400,2.32815625,-0.33295594332516193,2.510839203850925,-1.1131330915808677
1681262546931188200,2.338188232421875,-0.2872515922486782,1.7125541519746184,-1.1679922244936227
1681262546941221400,2.348221435546875,0.12155951026678084,1.440747820008546,-1.3099965568959713
1681262546951253500,2.35825341796875,0.7263549571752548,1.8791773773267864,-1.254367608654499
1681262546961285400,2.368285400390625,1.038157637834549,2.1368413483023643,-1.6467296806722878
1681262546971317500,2.3783173828125,1.2022662500172854,1.9328861711606382,-2.295640748161077
1681262546981349400,2.388349365234375,1.0598691189050673,1.8962156058892607,-2.0667408071160316
1681262546991381500,2.398381591796875,1.1426958706736563,1.9873450527094303,-1.1976239771693944
1681262547001413400,2.408413330078125,0.8802350208103656,2.127279739230871,-1.8846692527413367
1681262547011446500,2.418446533203125,0.35230069526433944,1.866847910977155,-1.4674188231825829
1681262547021478400,2.428478515625,0.13425298762321472,1.134561006469652,-1.7911030802935362
1681262547031510300,2.43851025390625,0.1661994469821453,0.661015931302309,-1.403499016457796
1681262547041542700,2.448542724609375,-0.02473579732775688,0.08813508730977773,-1.689887269875407
1681262547051574500,2.458574462890625,0.33180501972436904,-0.14192279159873722,-2.218687856861949
1681262547061606400,2.4686064453125,0.32402561789453027,-0.24822964154556393,-2.3872066867023705
1681262547071638300,2.47863818359375,-0.8605114986866712,-1.2479150715142489,-1.1409762072741985
1681262547081671400,2.48867138671875,-1.0951152043312788,-2.010586081434786,0.1046387706041336
1681262547091703300,2.498703369140625,-0.6260778889119625,-1.6618831184014677,0.4973632461935281
1681262547101735400,2.5087353515625,0.3672030808418989,-0.7189725187737495,1.6715964109033346
1681262547111767600,2.518767578125,0.4195832564204931,-0.011507044050842522,2.3554560421764847
1681262547121799400,2.52879931640625,0.028306641551852224,0.1391053960904479,2.085138049072027
1681262547131831300,2.538831298828125,-0.057197804993391034,-0.07729001429900527,1.4589192903846502
1681262547141864400,2.548864501953125,0.27449557105004785,-0.4364741489341482,0.792707544004917
1681262547151896600,2.558896484375,0.737453274294734,-0.7325804075613618,0.27358547046780585
1681262547161928400,2.568928466796875,0.7481745747953653,-1.0439382670626043,-0.15088964964747428
1681262547171960300,2.578960205078125,0.27007366295456886,-1.1673125716663897,0.2550438516050577
1681262547181992700,2.58899267578125,0.23395313278138635,-1.168662963362038,1.2944359996706247
1681262547192024800,2.59902490234375,0.036870471757650375,-0.9434995784968138,2.306141099387407
1681262547202057000,2.609056884765625,-0.33254970061182976,-0.7585370519209653,2.6737019076257944
1681262547212088800,2.6190888671875,-0.32905484423339365,-0.647472266857326,1.8722598530232906
1681262547222121700,2.629121826171875,-0.5904980414867401,-0.4337278824333101,0.3872790696650743
1681262547232153600,2.639153564453125,-0.4077233072787523,-0.022037023230455813,-0.032744331738352776
1681262547242185700,2.649185791015625,-0.07968260852396487,0.09277527779843657,0.05591185683608055
1681262547252217900,2.6592177734375,0.06443009433448314,0.19231351039316505,-0.2915776387542486
1681262547262249700,2.669249755859375,0.14002514128386973,0.14940200490560382,0.09013970513045787
1681262547272281900,2.67928173828125,0.40140345660746096,0.10192297230679541,0.17503858699798583
1681262547282313700,2.689313720703125,0.058301382321119304,-0.008084960647672414,-0.00393266327381134
1681262547292346600,2.6993466796875,-0.10301847592592239,0.2924302004629746,-0.021502222234010694
1681262547302378800,2.709378662109375,-0.5964706861555577,0.489513007617183,0.2639917126923799
1681262547312411000,2.719410888671875,-0.7703226937174796,0.37776327249668534,0.6337596755862236
1681262547322442800,2.72944287109375,-0.5833031615465879,0.18888169104726985,0.45771746450364587
1681262547332474600,2.739474609375,-0.0682055212199688,-0.09414265716150402,-0.35499300308823584
1681262547342507000,2.749507080078125,0.4986877727955579,-0.26754997142953796,-0.9011685032457113
1681262547352540000,2.759539794921875,1.065726028239727,-0.21927147728241977,-0.8584387840658426
1681262547362571800,2.76957177734375,1.02543610342741,-0.10517653074264526,-0.7258125208616256
1681262547372603600,2.779603759765625,0.5382043751478195,0.19685798542238772,-0.7241746905267238
1681262547382635800,2.7896357421875,0.29041970089077945,0.9101012398291378,-0.6413502768456936
1681262547392667600,2.799667724609375,-1.265025780791044,0.39235988006070255,0.23140403282046318
1681262547402699800,2.80969970703125,-0.9367015889197587,0.06319363874155097,1.3496288945823907
1681262547412732000,2.81973193359375,0.1791536211013794,-0.9436681399967521,1.9385680161893366
1681262547422763800,2.829763671875,0.29699907928109165,-1.3757087999954818,2.203741632142663
1681262547432796700,2.839796630859375,-1.4145073172062634,-0.3434212963033467,1.797789426189661
1681262547442828500,2.84982861328125,-0.1442564952433109,-0.7946079707987606,-0.20645371595919132
1681262547452861000,2.85986083984375,1.9511831676125526,-1.2349043449021875,-1.8779045809119939
1681262547462892800,2.869892822265625,1.505505684992671,-0.4149425544751808,-1.3313555712670087
1681262547472924700,2.879924560546875,1.1045394507586956,-0.13754896042868495,-0.3718172966390848
1681262547482956800,2.889956787109375,0.4426327080965042,-0.19419315012730656,0.39126901608407494
1681262547492989000,2.899989013671875,0.3197679604500532,-0.36400150832161304,1.544873818784952
1681262547503021800,2.910021728515625,0.1683089864820242,-0.3523107052017003,2.5262545073866844
1681262547513053700,2.9200537109375,0.22958850783109663,-0.03184672531150281,2.280470067036152
1681262547523085800,2.9300859375,-0.12418693616092204,-0.027696035372838376,1.1937941897481679
1681262547533117700,2.94011767578125,-1.0926233875155449,0.4788081833273172,-0.5597586198300123
1681262547543149800,2.95014990234375,-1.1996861703962087,0.6651569766297936,-2.613943896755576
1681262547553182000,2.960181884765625,-0.8608096048504114,0.29222536207325756,-3.9587539928793904
1681262547563213800,2.9702138671875,-0.5593178903251886,0.14235110001340506,-3.5034909357905386
1681262547573246700,2.980246826171875,1.0964829855531453,-0.088614833650738,-0.8107879750967025
1681262547583278600,2.990278564453125,0.40997956177294254,-0.6441282901916653,-0.048937926170229906
1681262547593310700,3.000310791015625,0.09634849664270877,-0.29189949111975727,0.035384032592177386
1681262547603342800,3.0103427734375,0.040592707151174544,0.9958402257826179,0.15824527310729025
1681262547613374700,3.020374755859375,-0.2954997806340456,1.6925037359841166,0.4265647858709097
1681262547623406800,3.03040673828125,-0.48354690228700636,1.843729193457216,0.8552046244502067
1681262547633438700,3.040438720703125,-0.493338812983036,1.9269553198069334,1.0860761578291653
1681262547643471600,3.0504716796875,-0.6359206530123949,1.7800711064085364,0.6260398949891328
1681262547653503700,3.060503662109375,-0.5635796394228935,1.467144390155375,0.6822779150396585
1681262547663535900,3.070535888671875,-0.10455693753957748,0.7423028332177549,1.0618693528115748
1681262547673567700,3.080567626953125,-0.38367724578082557,0.31212891693897543,0.582465541678667
1681262547683599600,3.090599609375,-0.3712777829349041,-0.27912666491679844,0.12856851224601268
1681262547693632000,3.100632080078125,-0.09410276354253291,-0.34023777089640495,-0.09627893853783608
1681262547703663900,3.110663818359375,-0.40140404112935063,-0.17932941605970262,-0.7220037762284278
1681262547713696800,3.12069677734375,-0.6672913583099842,-0.02948679124712944,-0.8816688530057668
1681262547723728600,3.130728759765625,0.25862697078883645,0.2324945314709097,-0.5331570286303758
1681262547733760800,3.1407607421875,0.7964999220252037,0.4584123149000108,-0.38394554132819175
1681262547743793000,3.15079296875,0.6255699393898249,0.4607894192948937,0.1807990502208471
1681262547753824800,3.16082470703125,0.41341538144052026,0.5772697996664792,1.0855845749199389
1681262547763857000,3.17085693359375,0.2809989615947008,0.5726292803842574,1.499804258480668
1681262547773888800,3.180888671875,-0.29848084227144717,0.4017863184452057,1.3830226301401853
1681262547783921700,3.190921630859375,-0.41635611106753345,0.01771620088927448,1.1247060404747724
1681262547793953500,3.20095361328125,0.10831950494349002,-0.3193301535546779,0.8872463608771562
1681262547803986000,3.21098583984375,0.5977011047333478,-0.7055361871607602,0.582014290779829
1681262547814017800,3.221017822265625,0.8521656951457262,-1.0597516300052403,0.09712649527788161
1681262547824049700,3.231049560546875,1.363257606962323,-1.195052226985246,-0.3993459395557642
1681262547834081800,3.241081787109375,0.9254659091562032,-0.86353523042202,-0.7652507972806691
1681262547844114000,3.251114013671875,-0.640042116856575,-0.23468904584050176,-0.5760527520269155
1681262547854146800,3.261146728515625,-4.978019883239269,-0.15307539618872104,-0.7478156783550978
1681262547864178700,3.2711787109375,-0.12388123121261596,-0.6908852921262383,0.15730360834300516
1681262547874210800,3.2812109375,1.0908686528027056,-0.6968718191899359,0.8364099076092243
1681262547884242700,3.29124267578125,3.508935757192969,0.22222565091289578,1.0330997699230908
1681262547894274800,3.30127490234375,2.484251348915696,0.36958376543335614,0.9238286633431911
1681262547904307000,3.311306884765625,0.5078425546318293,0.6979758349090814,0.4867722940742969
1681262547914338800,3.3213388671875,-1.1653536926835775,0.9781040780838578,0.41562896583676334
1681262547924370700,3.33137060546875,-1.571439169627428,0.980471245606616,0.423462728202343
1681262547934403600,3.341403564453125,-0.746472447052598,1.156577315705642,0.46339843274950976
1681262547944435700,3.351435791015625,-0.7551765625119209,1.0073130022376775,0.34681437280774113
1681262547954467800,3.3614677734375,-0.7376292153835297,0.45517099489122625,-0.07620762588977813
1681262547964499700,3.371499755859375,-0.11700783831179142,-0.25458503845427183,-0.5802858595520257
1681262547974531800,3.38153173828125,0.5842962642371654,-0.8569818632557987,-0.9214864841312169
1681262547984563700,3.391563720703125,0.5846604213744402,-1.0118457502964884,-0.9943804554283618
1681262547994595800,3.401595947265625,0.3655857087731361,-1.0459005801115184,-0.8462327979654073
1681262548004628700,3.411628662109375,0.2065846488624811,-1.1487903881564736,-0.6181552792191505
1681262548014660900,3.421660888671875,0.16634966910779475,-1.2723743899881839,-0.6487047312617301
1681262548024692700,3.431692626953125,0.11799100413024424,-1.292872403615713,-0.7664601730704307
1681262548034724600,3.441724609375,-0.270576936301589,-0.7741470743112265,-0.14275193589925766
1681262548044757000,3.451757080078125,-0.6312620135515928,0.06040372489523142,0.25794775635302064
1681262548054788900,3.461788818359375,-0.5351812279343605,0.39989173687025903,0.20684476110339164
1681262548064820700,3.47182080078125,-0.4145189587682485,0.30947653926666824,0.13959084151983261
1681262548074853600,3.481853515625,-0.2790028193414211,0.06565554447621107,-0.06909983971118927
1681262548084885800,3.4918857421875,0.34960721839666364,-0.16272285691276192,-0.42084056300520895
1681262548094918000,3.50191796875,0.8222983801484107,-0.06131546944528818,-0.5853162549346685
1681262548104949800,3.51194970703125,0.5657932238191365,0.08901139522027224,-0.25065116960406303
1681262548114981600,3.521981689453125,0.31955753256976605,0.06201313285324722,0.22360475724637507
1681262548125013800,3.532013671875,0.6088304015129804,-0.7764958293944597,0.6720820997178554
1681262548135046000,3.5420458984375,-0.07040156995952129,-1.3334769473351538,0.9425193352878093
1681262548145077800,3.552077880859375,-0.34925533621907234,-0.45490021512582896,-0.06866670899093151
1681262548155111000,3.56211083984375,0.9499123681485653,-0.6335649567317218,-1.0701496899008751
1681262548165142800,3.572142822265625,0.15806465584337712,-1.3622998678460716,-0.7450918063491583
1681262548175175000,3.5821748046875,0.12298749724328517,-2.151244552186131,0.1357791742771864
1681262548185206800,3.592206787109375,-0.5016168119847774,-2.420734862294793,0.7207897242635488
1681262548195239000,3.602239013671875,-1.141781093916297,-1.918530459680408,0.9181599700570106
1681262548205271000,3.61227099609375,-0.9137859927564859,-1.1649135477006434,0.9023334553718566
1681262548215303000,3.622302978515625,-0.18686755647957323,-0.38958416826967146,0.8300520630151033
1681262548225335800,3.632335693359375,0.44588615693449973,-0.18159502290412782,0.9193880505472422
1681262548235368000,3.642367919921875,-0.17008885563611983,0.22326858409456907,0.697336952483654
1681262548245400000,3.652400146484375,-0.014968436551094054,1.1893983659420162,0.16227905866801737
1681262548255432000,3.662431884765625,0.04818973815143108,1.7183138845451176,-0.5500690004646778
1681262548265463800,3.6724638671875,0.007359715113043785,1.3305946698971092,-0.9598901568055153
1681262548275496000,3.682495849609375,0.005175941333174706,1.219575696736574,-0.7815256402552128
1681262548285528000,3.692528076171875,-0.14582476747334003,1.105199814363569,-0.37760581691265105
1681262548295560000,3.702559814453125,-0.20013269624412058,1.0554518869847058,0.08876081799268722
1681262548305593000,3.712593017578125,-0.08055705327093601,0.9484066397607326,0.22819734573364256
1681262548315625000,3.722625,0.10684709430336951,-0.18855799378454685,0.03941489554345608
1681262548325656800,3.73265673828125,0.18499007216989993,-1.603283922177553,0.0752197838962078
1681262548335688700,3.742688720703125,0.1498509542495012,-2.734676600809395,0.5164508085012436
1681262548345721000,3.75272119140625,0.09029401890933512,-3.6652202516213057,1.1619430074572563
1681262548355753000,3.7627529296875,-0.5413251375168562,-4.95028490409553,1.6410399445980786
1681262548365784800,3.772784912109375,-0.7162491582244634,-5.569801534795761,2.139005248337984
1681262548375818000,3.78281787109375,-0.9662082539111375,-1.868155632574856,1.346998546078801
1681262548385849900,3.792849853515625,-1.238145372650027,2.3229690462000665,0.3177987062036991
1681262548395882000,3.802882080078125,-0.23572774123847484,4.660736725342273,-1.9171733459830282
1681262548405913900,3.812913818359375,1.1816864033252,4.921179805642366,-2.9692560487955806
1681262548415946000,3.822946044921875,1.4024942233294249,3.455815284641087,-2.035700356686115
1681262548425977900,3.832977783203125,0.6326712958276272,0.792819479946792,-0.8795335945427417
1681262548436010000,3.843010009765625,-0.40235272015631196,-1.3761582973286508,-0.028920389536023137
1681262548446041900,3.853041748046875,-0.9261427855044603,-1.9090430848889053,0.858423001974821
1681262548456075000,3.863074951171875,-0.6950947265148163,-2.384022211447358,1.172941371333599
1681262548466107000,3.87310693359375,-1.4570745393007993,-1.9057278228610752,0.6932832931786775
1681262548476138800,3.883138671875,-0.42904841938018795,-2.73371623134464,0.13805880964696407
1681262548486171000,3.8931708984375,0.1894751086294651,-2.4904385131180287,0.31905075209140776
1681262548496203000,3.903203125,-0.3262321880280971,-1.6257164109989999,0.10025193382203579
1681262548506235000,3.91323486328125,0.0560533111333847,0.35532596136964856,-0.4999579388618469
1681262548516266800,3.923266845703125,0.10353285518884658,1.095471543488279,-1.075204050680995
1681262548526300000,3.9332998046875,0.669869099843502,1.5586200200647116,-2.089551189339161
1681262548536331800,3.943331787109375,0.17401333560347557,2.5053821074888107,-1.0999725812345742
1681262548546364000,3.953364013671875,0.22120529488921165,1.9542665205806493,0.20751170057952403
1681262548556396000,3.96339599609375,-0.2509188806295395,-0.7979831463202833,0.5504162064671516
1681262548566428000,3.973427978515625,-0.7750304330170155,-2.0784068411208687,0.3878331964164972
1681262548576459800,3.983459716796875,-0.37177930271625514,-0.9428688063126057,0.5627326672047376
1681262548586492000,3.993491943359375,-0.040625440376996995,0.45365956741496916,1.0800105741798878
1681262548596525000,4.003525146484375,-0.17192366984784602,1.0260421064965426,0.9056424337893724
1681262548606557000,4.013556884765625,-0.43786768565177914,0.5959070609234273,0.2835340330302715
1681262548616588800,4.0235888671875,-0.38195407525002956,-0.2286855676420033,-0.33565468088984485
1681262548626621000,4.033620849609375,-0.200624279153347,-0.6779546450130641,-0.5882756892621517
1681262548636653000,4.043653076171875,0.0734463444828987,-0.26583412568867204,-0.42159693433046336
1681262548646685000,4.053684814453125,-0.0708539899021387,-0.18628639559075236,-0.6402776791781186
1681262548656716800,4.063716796875,0.047859483283758164,-0.6451866401381791,-0.6950964800804853
1681262548666749000,4.0737490234375,0.16532967841029167,-0.9001815380349755,0.10988368552029132
1681262548676781800,4.08378173828125,0.09880173501372337,0.3499592467047274,0.3746756086796522
1681262548686814000,4.09381396484375,0.43027357726097104,-0.8065915463201702,0.1692757856875658
1681262548696846000,4.10384619140625,0.32995091629028317,-2.7499276536941526,1.7017343595355747
1681262548706878000,4.1138779296875,2.941892241051793,-8.387244973880051,4.516638051009178
1681262548716909800,4.123909912109375,6.1975008874297135,-10.293708709800242,4.303117173142731
1681262548726941700,4.133941650390625,2.321902732142806,-4.316640379321575,1.8006620590165257
1681262548736974000,4.14397412109375,-1.2569102788746356,2.0109327029153703,2.0961142011165617
1681262548747006000,4.154005859375,-4.402445854640007,4.896908118695021,0.700143826597929
1681262548757038800,4.164038818359375,-3.037095074790716,5.837137297219038,-1.61309979827106
1681262548767071000,4.174071044921875,-1.2546131078481673,6.037977849471568,-2.11827401047647
1681262548777102800,4.184102783203125,-1.4308043720126151,3.439056165280938,-2.7124372964724897
1681262548787135000,4.194135009765625,-1.6921733349859713,2.018848882867396,-2.377961011712253
1681262548797166800,4.204166748046875,-0.20357260756492612,2.2719231879651547,-0.6814157452523708
1681262548807199000,4.214198974609375,0.4117272822231054,4.205609569592774,0.2340364271506667
1681262548817230800,4.22423095703125,0.1042728599011898,1.7278358922585844,0.491416028226912
1681262548827263700,4.234263671875,-0.14554244340062142,1.6418381092384458,0.7063298217564821
1681262548837296000,4.244296142578125,-0.056824880027770995,1.5098694331601261,0.5610822696492076
1681262548847328000,4.254327880859375,0.34667525659799575,-0.4088505577430129,0.8499515262275934
1681262548857360000,4.26435986328125,-0.07833236295878887,-2.1421023375704884,1.7259636686459183
1681262548867391700,4.274391845703125,-1.1688263372302055,-1.6146315378829836,2.07784087780118
1681262548877424000,4.284424072265625,-1.8633260204613207,-0.874210353693366,1.3783566841557622
1681262548887456000,4.2944560546875,-1.2351380075275897,-0.9538131749793887,-0.309818521104753
1681262548897488000,4.30448779296875,-0.40788638888597484,-1.3113368655890225,-1.2145467626586555
1681262548907521000,4.31452099609375,0.4368979638367891,-1.053306983910501,-0.3547524723306298
1681262548917553000,4.324552978515625,1.1790367655992506,-0.1006806806281209,0.4385726190507412
1681262548927584800,4.334584716796875,1.3293372171819209,0.4169268966928124,0.7932000036969781
1681262548937617000,4.344616943359375,0.6981704806983471,1.1886106496304274,1.2687553227081894
1681262548947649000,4.35464892578125,0.055929977014660834,1.9920581988364456,0.8460212010413408
1681262548957681000,4.364680908203125,-0.29055297188162804,1.9986250100061296,-0.04946808752417564
1681262548967712800,4.374712646484375,-0.291216988748312,1.8348744174808262,-0.7200599486842751
1681262548977746000,4.384745849609375,-0.053522915872931474,1.6199232145503162,-0.9512100067436694
1681262548987778000,4.394778076171875,0.19926351219415664,1.0706158461079,-1.0328194916769862
1681262548997810000,4.404809814453125,0.29101708226203915,-0.30263591612428425,-1.061348543807864
1681262549007841800,4.414841796875,-0.07437105811238288,-0.9442807920023798,-0.6896835151210426
1681262549017874000,4.4248740234375,-0.43662616115808484,-1.129751633426547,-0.5404889789536595
1681262549027906000,4.434906005859375,-0.6809516348719596,-1.429733820171654,-0.4676227724462747
1681262549037938000,4.44493798828125,-0.6472767442852259,-1.3446797477424144,-0.20110797101706265
1681262549047971000,4.45497119140625,-0.30649872903227804,-1.636054265139997,0.3003615414515137
1681262549058003000,4.4650029296875,0.035353637453913685,-2.186452643689513,0.5572989517182111
1681262549068034800,4.475034912109375,-0.045640638190507885,-3.281627176992595,0.03663490943610668
1681262549078067000,4.48506689453125,-0.050444239079952234,-2.485303780578077,0.32529636848270893
1681262549088099000,4.49509912109375,-0.22831483463346958,0.011196224536001682,0.890361278027296
1681262549098131000,4.505130859375,-0.24961013611853122,-0.2752688935101032,-0.5075374342054129
1681262549108162800,4.515162841796875,-0.23395254825949668,0.6832077432356775,-0.5172387440085411
1681262549118195000,4.52519482421875,0.10096680409312248,0.8695948227219283,-0.6997989586830139
1681262549128227800,4.535227783203125,0.1688917548060417,0.6987677159391343,-1.1390776801764964
1681262549138260000,4.545260009765625,-0.1660346118092537,2.050743173647672,-0.8189964159935712
1681262549148291800,4.555291748046875,-0.25225275958180426,0.8798732017606496,-1.1047259132415055
1681262549158324000,4.565323974609375,-0.18043255499601363,1.439168441862613,-0.21037001262009142
1681262549168355800,4.57535595703125,0.10226619625389576,3.333998292481899,0.46764381523430343
1681262549178387500,4.585387451171875,0.3939244990289211,3.2451094641953704,0.5712503201812505
1681262549188419300,4.59541943359375,0.6064180796742439,1.7310015166826545,-0.00879120922088623
1681262549198452500,4.605452392578125,0.6597615473270416,1.1509024849396199,-0.2597287945508957
1681262549208484400,4.615484375,0.3263467543184757,1.263148004220426,0.06108019938468933
1681262549218516200,4.62551611328125,-0.08946224426031112,1.3653081097513438,0.25326281340718265
1681262549228548400,4.63554833984375,-0.23020050224959848,1.172321632000059,0.09104279145002364
1681262549238580500,4.64558056640625,0.00018880057036876677,1.2376941217511892,0.2345183654487133
1681262549248612400,4.6556123046875,0.4198229103952646,1.521076471351087,0.03890402341187
1681262549258644200,4.665644287109375,0.7549515215843916,-0.20944931757859883,-1.2178648011654614
1681262549268677400,4.675677490234375,0.4490390680074692,-0.008347849367558956,-0.45434243511259553
1681262549278709500,4.68570947265625,0.3247182763338089,0.4402366798054427,0.2956003183990717
1681262549288741400,4.695741455078125,0.07017945164144039,0.30412659307345746,0.14022387872636316
1681262549298773200,4.705773193359375,0.18766835146844385,0.4022907608360052,0.8518044606178998
1681262549308805400,4.715805419921875,0.290767491415143,0.44700843896269793,0.31139409985840316
1681262549318837500,4.72583740234375,0.3009498627334833,0.05099646613523364,-0.7207377018153667
1681262549328869400,4.735869384765625,0.5217419006466866,-1.3995108236044644,-0.0907663125962019
1681262549338902500,4.745902587890625,-0.23961598084867,-1.1510798142679035,1.0196458295881747
1681262549348934400,4.755934326171875,-0.6633972734808922,-1.2537284339681267,1.2119324885070324
1681262549358966300,4.76596630859375,-0.6482657553225756,-1.0659819026969373,1.4511767134338616
1681262549368998400,4.775998291015625,-0.3056155164569616,-1.0164140080600976,1.475624341470003
1681262549379030500,4.786030517578125,0.30026831021010875,-0.8848355003431438,0.756354958641529
1681262549389062400,4.7960625,0.319801862719655,0.8175180140040814,1.7449790425002574
1681262549399094300,4.80609423828125,-0.36587037093341346,-0.5753438731051981,1.1990122166574
1681262549409126400,4.81612646484375,-0.1427934369534254,-2.607250536596775,-0.6993927159696817
1681262549419159300,4.8261591796875,0.22260288672745226,0.6579163578517735,-0.7882049718886613
1681262549429191400,4.83619140625,0.07949965317249298,0.706703769635409,-0.7858224606662988
1681262549439223300,4.846223388671875,0.04908288759887218,1.0272283936716615,-0.9882885682940482
1681262549449255400,4.85625537109375,0.09837269594669341,2.1872699514217673,-0.5435387219130993
1681262549459287300,4.866287353515625,0.15080080232024193,0.9523960016578435,-0.9064297847747802
1681262549469319400,4.8763193359375,0.0404682039886713,1.0138307135686278,-1.3923510149776934
1681262549479351300,4.886351318359375,-0.09986907198429107,1.045840155161172,-0.9299947847574949
1681262549489384400,4.896384521484375,-0.17652034998834132,0.7991253020927309,-0.4014233303517103
1681262549499416300,4.906416259765625,-0.13322013744413852,0.5335765692166984,-0.3616477848023176
1681262549509448200,4.9164482421875,-0.08024199597239494,0.37663463379293677,-0.27806115457713604
1681262549519480600,4.92648046875,-0.03439794416427612,0.08668941854611038,-0.17140870606303213
1681262549529512400,4.936512451171875,-0.08682488149404526,-0.25220292909070846,0.017865327036380767
1681262549539544300,4.94654443359375,-0.14269991345107555,-0.1938701287180185,-0.010042670586705207
1681262549549576200,4.956576171875,-0.11604746884703636,-0.04367459881454706,-0.1793178717523813
1681262549559609300,4.966609375,-0.03272328895032406,0.037261370771378276,-0.25880466544330116
1681262549569641500,4.976641357421875,0.03474573468863964,-0.040823154906183476,0.027504092997312546
1681262549579673300,4.98667333984375,0.06009878713190555,-0.17924276068955658,0.13677461505532265
1681262549589705500,4.99670556640625,0.07052548860013484,-0.04904036363139748,0.0843085147589445
1681262549599737300,5.0067373046875,0.10469897635877132,0.042736002790182824,0.020958032354712487
1681262549609769500,5.01676953125,0.13203531157374382,0.050558805370330806,0.023332944792509077
1681262549619801300,5.02680126953125,0.11885025130808352,0.09889818112552165,-0.004843348377943039
1681262549629833500,5.03683349609375,0.10303425801694392,0.1510389949902892,-0.04605740229785442
1681262549639866400,5.046866455078125,0.06499006630480289,0.14843085831850766,0.014924012887477875
1681262549649898200,5.056898193359375,-0.06546235999166965,0.0717687666594982,0.06845569658875465
1681262549659930400,5.066930419921875,-0.12282266207039355,-0.025492460913956162,0.10362228703796864
1681262549669962500,5.07696240234375,-0.1930471218973398,-0.002663373990356922,0.007072714865207672
1681262549679994400,5.086994384765625,-0.19900223090946673,-0.0228112590059638,-0.05073416193723678
1681262549690026200,5.097026123046875,-0.176813779976964,-0.04088599100932479,-0.01326455524265766
1681262549700058400,5.107058349609375,-0.11445640026330947,-0.1528420988894999,0.01851882250905037
1681262549710091300,5.11709130859375,-0.05327040241658687,-0.21556918869838118,0.00826747760772705
1681262549720123400,5.127123291015625,0.026637831556797026,-0.22984102128744124,0.0029600188493728637
1681262549730155500,5.137155517578125,0.05926116726398468,-0.12626096595600247,-0.02779576942026615
1681262549740187400,5.1471875,-0.0130798463255167,0.008844400712847708,-0.09075812928974628
1681262549750219300,5.15721923828125,-0.042917350706458086,0.05188946945220232,-0.08449731532931327
1681262549760251400,5.16725146484375,-0.04017769660949707,0.13537994582653046,0.014130232161283493
1681262549770283500,5.177283447265625,0.058901101779937744,0.0996140743099153,0.16180091976225375
1681262549780315400,5.1873154296875,0.10477730229198932,0.04049304616898298,0.20032617298960684
1681262549790348300,5.197348388671875,0.030738252612948415,0.02505626145377755,0.15969956356883047
1681262549800380400,5.20738037109375,0.04066811047494411,0.044933805095404386,0.10240765055119991
1681262549810412300,5.217412353515625,0.02450023500621319,0.046422728478908534,0.056146250113844866
1681262549820444400,5.2274443359375,0.04983750535845756,0.0805718124486506,-0.057254503616690634
1681262549830476300,5.237476318359375,0.04603109881281853,-0.009123071523755789,-0.052689387658238405
1681262549840508400,5.24750830078125,0.05019990893006324,-0.1081472171165049,-0.022231121030449864
1681262549850540300,5.257540283203125,0.011333879441022873,-0.06233282979428768,-0.03219897281527519
1681262549860573200,5.2675732421875,-0.06369184318780899,0.008004881148785352,-0.07314180857837199
1681262549870605600,5.27760546875,-0.1638981843024492,-0.03576031855866313,-0.0902782368183136
1681262549880637400,5.287637451171875,-0.1649047309964895,0.013408639888465404,-0.04932897131443023
1681262549890669300,5.29766943359375,-0.09083645522296428,-0.03221753138527274,0.042052258309721945
1681262549900701200,5.307701171875,-0.041674657168984414,-0.10844108549654483,0.09250292713046074
1681262549910733600,5.317733642578125,-0.05852642324864864,-0.029938918928802013,0.032495325413346286
1681262549920765400,5.327765380859375,-0.015799626678228377,0.019789865358173845,-0.048041854113340374
1681262549930797300,5.33779736328125,0.02012742674946785,0.009054682462662458,-0.05396890607476234
1681262549940830500,5.34783056640625,0.03395136944055557,0.10899667355269194,-0.05838379990756511
1681262549950862300,5.3578623046875,0.002831424033641815,-0.0010306582219898701,-0.07946633542478083
1681262549960894500,5.36789453125,-0.024012743750214574,0.04084931226074695,-0.01778232492804527
1681262549970926300,5.37792626953125,-0.03874561797976494,-0.028456425286084414,0.07297989601492881
1681262549980958500,5.38795849609375,-0.0326473011046648,-0.06034457858651876,0.11243687713444232
1681262549990990300,5.397990234375,-0.03772796536982059,-0.09512100067436695,0.11931027003526687
1681262550001022500,5.4080224609375,-0.04402969586253166,-0.050972500737756485,0.08319266247153281
1681262550011054300,5.418054443359375,-0.047076808473467825,-0.005020604640990496,0.015240239229798317
1681262550021087500,5.42808740234375,-0.007643208229541778,0.019663170238584278,-0.013827449822425841
1681262550031119400,5.438119384765625,0.0020639467924833295,0.028132746289670465,-0.014324877950549125
1681262550041151200,5.448151123046875,0.02314940491914749,-0.004371346952021122,-0.018396657434105873
1681262550051183400,5.458183349609375,0.03261164526939392,0.009397942942380905,-0.03288812412321567
1681262550061215500,5.468215576171875,-0.0033498949497938156,-0.009506371752917766,0.04882394440174102
1681262550071247400,5.478247314453125,-0.01893967826962471,-0.026059739407896992,0.05191781876385212
1681262550081279200,5.488279296875,0.005759294179081917,0.08565496093183755,0.07900456313192844
1681262550091312400,5.4983125,0.03082826898396015,0.029646073462069034,0.07661328408122062
1681262550101344300,5.50834423828125,0.011639584389328956,0.02996624532714486,0.09503039978146552
1681262550111376400,5.51837646484375,0.02187982337474823,0.03118789607658982,0.09749825119972229
1681262550121408500,5.528408447265625,0.012868249401450156,0.05312105707377195,0.04297931002676487
1681262550131440400,5.5384404296875,0.0091062665194273,0.004841302551329136,0.03373568086326122
1681262550141472300,5.54847216796875,0.019058336213231084,-0.060561582338064905,0.025616087293624877
1681262550151504400,5.55850439453125,0.02593348267972469,-0.04756853751316666,0.052309448429942125
1681262550161536500,5.56853662109375,0.005657002848386764,-0.09467150334119796,0.06601590222120285
1681262550171569400,5.5785693359375,-0.016611527583003043,-0.0181328919313848,0.03755728497803211
1681262550181601300,5.588601318359375,-0.04597790732085705,-0.003178337775170803,-0.02412789456248283
1681262550191633200,5.598633056640625,-0.0855330881178379,0.002784223891049623,-0.06301379779577256
1681262550201665300,5.608665283203125,-0.07290449269115924,0.027293811247497794,-0.007411153039336204
1681262550211697400,5.618697509765625,-0.039190439137816425,0.06304200097694992,0.021620295655727387
1681262550221729300,5.628729248046875,-0.04128828819990158,-0.030826953809708357,-0.013532266268134117
1681262550231761200,5.63876123046875,-0.05129822556078434,-0.07025324753001332,-0.03980535616576671
1681262550241793300,5.648793212890625,-0.028944939455389975,-0.009862491714209318,-0.015605565410852432
1681262550251826200,5.658826171875,-0.006970423534512519,-0.003847615338861942,0.019538813206553457
1681262550261858300,5.6688583984375,0.028026071044802665,-0.002363222000002861,0.03817863174676895
1681262550271890200,5.67889013671875,0.06813947024643421,0.04341828596591949,0.05150689987540245
1681262550281922300,5.68892236328125,0.06183598618805408,0.09660290979519486,0.06011456922292709
1681262550291954200,5.6989541015625,0.014420739540457724,0.09053644936308264,0.006513911938667297
1681262550301986300,5.708986328125,0.014814707294106482,0.12507818591222167,0.034058921468257904
1681262550312018200,5.71901806640625,0.006141571494936942,0.10836378247663378,0.111204704990983
1681262550322051300,5.72905126953125,0.0021691607326269147,0.031762042702734465,0.16019874526262282
1681262550332083200,5.739083251953125,0.0003179799079895019,0.007423427999019622,0.0928834508806467
1681262550342115000,5.749114990234375,0.02014554692804813,0.09900134923905134,0.052507016828656196
1681262550352147500,5.7591474609375,0.050500937703251834,0.2207669034719467,0.07092062539756297
1681262550362179300,5.769179443359375,0.05694119988381862,0.2678293911591172,0.04476502439975738
1681262550372211200,5.779211181640625,0.03218494428992271,0.2625273392282426,-0.0010924714118242262
1681262550382243000,5.7892431640625,0.01413549285829067,0.2627135094501078,-0.020980244186520575
1681262550392275500,5.799275390625,-0.037194881406426426,0.20113281319737433,-0.09504676639437674
1681262550402308400,5.809308349609375,-0.03782324243783951,0.11966902034506201,-0.1743424214273691
1681262550412340200,5.81934033203125,-0.04576397230923176,0.11880261277407407,-0.07613982135057448
1681262550422372400,5.829372314453125,-0.012675357177853584,0.14688304435461758,-0.0044815293282270425
1681262550432404200,5.839404296875,0.012377251014113426,0.1971104258134961,0.11578326495289802
1681262550442436000,5.84943603515625,0.020374679508805275,0.23926950549855827,0.16787059506475924
1681262550452468200,5.85946826171875,-0.003940262058377266,0.10088614007234573,0.16930033560693264
1681262550462500400,5.869500244140625,-0.01670797369480133,-0.0995445162050426,0.16930676534771918
1681262550472532200,5.8795322265625,-0.09337094213664532,-0.3345329833835363,0.09745499657988548
1681262550482565000,5.889565185546875,-0.0385468805372715,-0.4515481282189488,0.08526128543913364
1681262550492597200,5.89959716796875,-0.2557487850040197,-0.706792470832169,-0.1554810690909624
1681262550502629400,5.90962939453125,-0.2484440149486065,-0.46622722643464803,-0.34911563548743724
1681262550512661200,5.9196611328125,0.0015793781459331512,-0.21306115140020845,-0.03992927480638027
1681262550522693000,5.929693115234375,0.02054477537870407,-0.06254150410890578,0.13796294805705547
1681262550532725200,5.939725341796875,0.03812544025480747,-0.008629296657443046,0.16042553975582122
1681262550542757400,5.94975732421875,0.07147942832410335,-0.0006537877336144447,0.10658289040923118
1681262550552789200,5.959789306640625,0.05967091710865497,-0.009453180260956286,0.04662848018407821
1681262550562822400,5.969822509765625,0.028893501529097556,-0.025381547885388135,0.03801671918332577
1681262550572854300,5.979854248046875,0.028920389536023137,-0.05106485519632697,0.04518646468222141
1681262550582886100,5.98988623046875,0.07289163320958614,0.005470978756994009,0.051423313245177266
1681262550592918300,5.999918212890625,0.09476327327787876,0.03767345870360732,0.03736088562309742
1681262550602950400,6.009950439453125,0.020626023921370504,0.07230389644950627,0.0692336952239275
1681262550612982300,6.019982177734375,0.010506780967116356,-0.10462971051484346,-0.042968788632750506
1681262550623014100,6.03001416015625,-0.05189443788826465,-0.27291706968694923,-0.007922609692811965
1681262550633046300,6.04004638671875,-0.17254092496335505,-0.06237140823900699,0.09493278462588786
1681262550643079200,6.0500791015625,-0.07421206815838813,-0.018867489816248417,0.06590133593082427
1681262550653111300,6.060111328125,-0.011005962660908699,0.09977744817808269,0.054069443839788435
1681262550663143200,6.07014306640625,-0.013072832062840462,0.16714681083485483,0.11044716462194919
1681262550673175300,6.08017529296875,0.006684007808566093,0.07245148822665214,0.06529752481877804
1681262550683207200,6.090207275390625,0.03361293126642704,-0.0032465807057917117,0.09592822540402411
1681262550693239300,6.1002392578125,0.021902619728446007,-0.07363441440090536,0.11748597721755503
1681262550703271400,6.110271484375,0.015987842726707457,-0.10758359188437461,0.08013385942280292
1681262550713303300,6.12030322265625,0.0018605331748723982,-0.03238499690666795,0.04395604610443115
1681262550723336200,6.130336181640625,0.003235328659415245,0.002936199582368135,-0.003449263671040535
1681262550733368000,6.1403681640625,0.01147299565076828,0.043484921461343765,-0.013606500548124312
1681262550743400400,6.150400390625,-0.01926642600595951,0.04982946818247437,0.03847556886672973
1681262550753432300,6.160432373046875,0.0031108254969120022,0.0462098163805902,0.05143032750785351
1681262550763464200,6.170464111328125,-0.004421908095479011,0.05401172230318188,0.04873042089939117
1681262550773496300,6.180496337890625,-0.012452069815993309,0.024462971735745666,0.059494391497969625
1681262550783528400,6.190528564453125,-0.024002806878089904,0.012608283291012047,0.054474517509341236
1681262550793560300,6.200560302734375,-0.026771102547645566,-0.00021013561934232712,0.042589433926343914
1681262550803593200,6.21059326171875,-0.020766309174895286,-0.01641775857657194,0.027445640808343885
1681262550813625300,6.220625244140625,-0.018386136040091514,-0.002982522942125797,0.000713116705417633
1681262550823657200,6.2306572265625,0.011185995402932166,0.00533259319961071,-0.07332768653929234
1681262550833689000,6.240689208984375,-0.0663882426649332,-0.02158157108053565,-0.13691490030884743
1681262550843721200,6.25072119140625,-0.13856559012532232,0.02269479301944375,-0.07200549802482127
1681262550853753300,6.26075341796875,-0.045377603340148925,0.05032280465736985,0.02542202602624893
1681262550863785200,6.27078515625,0.013776011896133422,0.03870134044662118,0.002508183428645134
1681262550873817000,6.280817138671875,-0.04631283836364746,-0.01699921172633767,-0.015572247663140295
1681262550883850200,6.290850341796875,-0.22979016788303852,-0.10462708016633987,0.16961831551492212
1681262550893882400,6.30088232421875,-0.0036743045985698696,-0.1613327177286148,0.10616028108298778
1681262550903914200,6.310914306640625,0.2810509840428829,0.13617416494414208,-0.26039690307080743
1681262550913946000,6.320946044921875,0.08292202883660793,0.13989917681664227,-0.3015343846231699
1681262550923978200,6.330978271484375,-0.11605974380671977,-0.0905848185494542,-0.05484335082173347
1681262550934010400,6.34101025390625,-0.1441962894886732,-0.2572514446519315,0.13914602036178111
1681262550944042200,6.351042236328125,0.0011859949141740799,-0.011075959157198667,0.10242343264222145
1681262550954074400,6.361074462890625,-0.007926701346039771,0.06533668778538704,-0.02013970170915127
1681262550964107300,6.371107177734375,-0.078962477555871,0.025242139414697884,-0.040458851638436315
1681262550974139100,6.38113916015625,-0.0628062925249338,-0.060425973259657616,0.014785481199622154
1681262550984171300,6.391171142578125,-0.01996785227358341,-0.0528054152533412,0.05196691860258579
1681262550994203400,6.401203369140625,-0.005449497577548027,-0.03215864080488682,0.03235036398470401
1681262551004235300,6.4112353515625,-0.021254384952783582,-0.03952800052911043,0.10239771367907524
1681262551014267100,6.42126708984375,-0.0006412205129861831,-0.022740093465894458,0.10614274542629717
1681262551024299300,6.43129931640625,0.020649989318847654,-0.012535218054801225,0.09247428555786609
1681262551034331400,6.441331298828125,0.03336743207275867,0.011652736131846904,0.10346855778098106
1681262551044364300,6.4513642578125,0.044054830303788185,0.023129531174898146,0.1019943935751915
1681262551054396200,6.461396240234375,0.033985271710157396,0.027634733639657495,0.0560837062716484
1681262551064428300,6.47142822265625,0.03336509398519993,0.062322746791690586,0.02312193239033222
1681262551074460200,6.481460205078125,-0.001665302863717079,0.07669380197152495,0.05059446120560169
1681262551084492300,6.4914921875,-0.012509352961182593,-0.04500643194019794,-0.022111878564953804
1681262551094524400,6.5015244140625,-0.03756546828448772,-0.04444689836129546,-0.028075170883536338
1681262551104556300,6.511556396484375,-0.07724807485342025,-0.003137567373365164,-0.03881166895329952
1681262551114588200,6.521588134765625,-0.09003098405897617,-0.004622837495058775,-0.03570201250016689
1681262551124621000,6.53162109375,-0.08670856163799762,-0.0029623569369316097,-0.02265314583480358
1681262551134653400,6.5416533203125,-0.06927168914675712,-0.014762684845924377,-0.0014729951620101928
1681262551144685300,6.551685302734375,-0.02515022334754467,-0.026510698045790194,0.005334931287169456
1681262551154717200,6.56171728515625,-0.0012947159856557845,-0.07481514861807227,-0.01424889010488987
1681262551164749300,6.571749267578125,-0.0037011926054954527,-0.061286097220331424,-0.053204935964941975
1681262551174781400,6.581781494140625,-0.02804360670149326,-0.031348639596253634,-0.10591127475798129
1681262551184814000,6.59181396484375,-0.07233575289249419,0.007702975592762232,-0.11144669705331325
1681262551194846000,6.601845947265625,-0.09800561619997024,0.0344295083463192,-0.10331132139265536
1681262551204879000,6.611879150390625,-0.09910159474313258,0.059356152071058745,-0.06883797390460968
1681262551214911000,6.621910888671875,-0.07229425183832645,0.06928221054077148,-0.0443634578615427
1681262551224942800,6.63194287109375,-0.0536567713856697,0.08376067161783575,-0.0306213482350111
1681262551234975000,6.64197509765625,-0.04303659317195415,0.07342179456353187,-0.03440495842695236
1681262551245007000,6.652007080078125,-0.02594751120507717,0.06363762878254056,-0.04303425508439541
1681262551255039000,6.6620390625,-0.04311199649572372,0.048034985981136556,-0.0435007035523653
1681262551265070800,6.67207080078125,-0.055412675142288204,-0.004450257407128811,-0.023906945288181304
1681262551275103000,6.68210302734375,-0.06407061337232589,-0.02447480830401182,0.0002583586752414703
1681262551285136000,6.692135986328125,-0.06704758335649967,-0.03995587055236101,0.026374212184548378
1681262551295168000,6.70216796875,-0.05926350535154342,-0.05728796749487519,0.04973813663721084
1681262551305200000,6.7122001953125,-0.015576923838257789,-0.08728636152595282,0.08144844915270805
1681262551315232000,6.72223193359375,0.02384206335842609,-0.11496113491505383,0.09896657018661499
1681262551325264000,6.732263916015625,0.05203004696667194,-0.12085998369529842,0.12351181337833404
1681262551335296000,6.7422958984375,0.10730009876787662,-0.11347922579422592,0.10688216561675071
1681262551345328000,6.752328125,0.12683715840876103,-0.12369871425256132,0.09345803589820861
1681262551355360000,6.762360107421875,0.14537936179339886,-0.11300357110649346,0.07100128941833972
1681262551365393000,6.772392822265625,0.13122925588786602,-0.08918693445026873,0.008892916029691696
1681262551375425000,6.782425048828125,0.10226970338523388,-0.04331014941632747,-0.016119944673776625
1681262551385457200,6.79245703125,0.04828092356622219,-0.001990735425800085,-0.029817630636692044
1681262551395489000,6.802489013671875,-0.01388064131438732,0.004678659335523844,-0.062332245272397994
1681262551405521000,6.81252099609375,-0.04581365666985512,0.0029113574020564552,-0.07544014864861964
1681262551415553000,6.822552978515625,-0.08599544493257999,-0.0020246376954019068,-0.10566577556431293
1681262551425585200,6.832585205078125,-0.1348766724795103,0.009895078809559345,-0.1578039590805769
1681262551435617000,6.842616943359375,-0.1776853021144867,-0.011580401547998189,-0.16829203534722328
1681262551445650200,6.852650146484375,-0.18641572105884552,-0.010888619891554117,-0.2205623208105564
1681262551455682000,6.86268212890625,-0.2043015063613653,-0.009600918168574571,-0.24831717369854447
1681262551465714000,6.8727138671875,-0.21562311084270477,0.02400324526950717,-0.25891163294911385
1681262551475745800,6.882745849609375,-0.2138911724835634,0.03697320147976279,-0.21949264575242994
1681262551485778200,6.892778076171875,-0.18577216245830058,0.07023278926387429,-0.16097674389779568
1681262551495810000,6.90281005859375,-0.14444471129179,0.10874182200878858,-0.1485316883444786
1681262551505842000,6.912842041015625,-0.08323124091625213,0.08803761828467249,-0.12930267173945903
1681262551515873800,6.922873779296875,-0.08327274197041988,-0.07166691372022033,-0.054124388897418975
1681262551525907000,6.932906982421875,-0.10495148981511593,-0.016063976702839135,0.01219838731586933
1681262551535939000,6.94293896484375,0.037412323549389837,0.012426204722374677,0.16644319261014462
1681262551545971000,6.952970947265625,0.11944587911367416,0.006378156729787587,0.11432722092568874
1681262551556003000,6.963003173828125,0.14333178161382673,0.17762144309803843,0.21721827107965944
1681262551566035000,6.973034912109375,0.10115794275104999,0.031095103226602076,0.274245395681262
1681262551576067000,6.983067138671875,0.10237959350049496,-0.1654378149598837,0.26945406975150105
1681262551586099000,6.993098876953125,0.055092357146739955,-0.03152896459922194,0.2027250508248806
1681262551596131000,7.003131103515625,0.09620470425784587,0.0649253305055201,0.13683365176618098
1681262551606163000,7.013162841796875,0.032952421531081195,-0.010561872155219316,0.06594985124766826
1681262551616195800,7.02319580078125,0.005572831696271896,0.062049190547317265,-0.07550853770971298
1681262551626228000,7.03322802734375,0.002555529701709747,-0.002060585791617632,-0.1263145958393812
1681262551636260000,7.043260009765625,-0.06079553722441196,-0.0723944973424077,-0.06939385422170162
1681262551646292000,7.0532919921875,0.00010755202770233153,0.07787439005821943,-0.06438859328031539
1681262551656323800,7.06332373046875,0.014681436303257942,0.041649814988672734,-0.06354571271538734
1681262551666356000,7.07335595703125,-0.034847441497445106,0.08187661143690347,-0.0070996028721332545
1681262551676388000,7.08338818359375,-0.057257426226139066,0.08426482174769044,0.014574468797445296
1681262551686420000,7.093419921875,-0.09182488173842429,0.02306070372238755,0.08711538887321948
1681262551696453000,7.103453125,-0.04436696499288082,0.047196489330381154,0.11575170077085495
1681262551706485000,7.113485107421875,-0.030923546051979063,0.0261205296844244,0.1247375557810068
1681262551716516900,7.123516845703125,-0.00976677625477314,0.01779182340875268,0.10608663132488727
1681262551726549000,7.133549072265625,0.014809446597099303,0.05418342560827732,0.08390461013317108
1681262551736581000,7.1435810546875,0.060174190455675125,0.011906857023388147,0.045509120765328405
1681262551746613000,7.153613037109375,0.08134031260311603,-0.016657997073233125,0.012890461233258247
1681262551756644900,7.163644775390625,0.03208791365623474,-0.02890110031366348,0.012364976054430007
1681262551766677000,7.173677001953125,-0.03618190497159958,-0.11515475779101252,0.011816694521903991
1681262551776710100,7.183710205078125,-0.10489186858236789,-0.11320610794126987,0.004509586378931999
1681262551786742000,7.193741943359375,-0.1666489443153143,-0.019201544076204297,0.021227496945858
1681262551796774000,7.20377392578125,-0.06195815126299858,0.02907499557584524,0.04269289430081844
1681262551806806000,7.213805908203125,0.03730827865302563,-0.011844313181191682,0.0424462260633707
1681262551816838100,7.223838134765625,0.09054068714678287,-0.18466683156490324,0.10364216078221797
1681262551826870000,7.2338701171875,0.1079588549375534,-0.1894527506671846,0.10163783522248268
1681262551836902000,7.24390185546875,0.13667875346541403,-0.0650157852679491,0.1940156746685505
1681262551846934000,7.25393408203125,0.21125907041430472,0.04930822078734636,0.2493967856287956
1681262551856967000,7.263966796875,0.25337094995677467,0.056815089286118746,0.14255144489109514
1681262551866998800,7.273998779296875,0.25178631111383437,0.11325126225724816,-0.0020364742636680604
1681262551877031200,7.28403125,0.16288170073628425,0.2565785138264298,0.031631402060389516
1681262551887063000,7.29406298828125,0.10521452466547489,0.26049612566158176,-0.039026188486814495
1681262551897095000,7.304094970703125,-0.02033084036707878,0.034734921033680435,-0.15300269627869129
1681262551907126800,7.314126708984375,-0.22417291252315044,-0.14951982259899377,-0.046805590316653246
1681262551917159200,7.3241591796875,-0.4758458263903856,-0.08414747897833585,0.18069851245582103
1681262551927191000,7.33419091796875,-0.5191565603286028,-0.07864332860410213,0.3135030548363924
1681262551937224000,7.344223876953125,-0.3720534434825182,-0.16387407277449964,0.3517465685129165
1681262551947256000,7.354256103515625,-0.17894260869920253,-0.0543169888600707,0.24603636928498743
1681262551957288000,7.364287841796875,0.02139350116252899,0.007561813556402921,0.0754296272546053
1681262551967320000,7.374320068359375,0.20737609150111674,-0.12365092958807944,-0.023876550149917602
1681262551977352000,7.38435205078125,0.18016484397053717,-0.1485369490414858,0.02810205889046192
1681262551987384000,7.394384033203125,0.09502046290934085,0.03587678454518318,0.07175356909036636
1681262551997416000,7.404416015625,0.13216390638947487,0.04662672661840916,0.049931028860807414
1681262552007448000,7.414447998046875,0.1353857910454273,0.09215075269192456,0.0644581513851881
1681262552017480200,7.424480224609375,0.14672493118345736,-0.204172473154217,-0.06487491549253463
1681262552027513000,7.43451318359375,0.1071224041134119,-0.0905503317579627,0.0076256725728511806
1681262552037545000,7.444544921875,-0.028657354685664174,0.7395850256264209,0.24495967996418475
1681262552047576800,7.454576904296875,0.0802963565081358,0.5023574012190103,0.053687166523933405
1681262552057609000,7.46460888671875,0.2599246093839407,-0.33771818929091096,0.0811713857769966
1681262552067641000,7.47464111328125,0.14306465511023997,-0.4144571455784142,0.22171792058646678
1681262552077673000,7.4846728515625,-0.018674889853596686,-0.16721563828736544,0.1769523116648197
1681262552087705000,7.494705078125,-0.008685410758852959,0.07295666126981377,0.11283844367265701
1681262552097737000,7.504737060546875,0.04570493559837341,0.19613851204141974,0.07042904248833656
1681262552107769900,7.514769775390625,-0.014921090278029441,0.04030395333766937,0.08073883957862854
1681262552117802000,7.524802001953125,-0.070950436013937,-0.20668562501892446,0.12663257574737072
1681262552127834000,7.534834228515625,-0.18323884458839892,-0.300253843293339,0.17574352039694785
1681262552137866000,7.544865966796875,-0.29836276884973045,-0.25829759270399805,0.2182481986492872
1681262552147897900,7.55489794921875,-0.3367617653489113,-0.18706337131261824,0.2590864049941301
1681262552157930200,7.56493017578125,-0.2586374921828508,-0.09249006764888763,0.18685235891044139
1681262552167962000,7.574962158203125,-0.08101765652000903,-0.03548997718468308,0.1785077244132757
1681262552177994000,7.584993896484375,0.13574176487624645,-0.056802229804545634,0.09745967275500297
1681262552188026400,7.5950263671875,0.27213877879083154,0.02601151635199785,-0.1554629489123821
1681262552198058500,7.60505859375,0.205055539599061,0.1142689148671925,-0.35481881556510925
1681262552208090600,7.615090576171875,0.0767366181999445,0.08092851693183183,-0.3243628870248794
1681262552218122500,7.62512255859375,-0.03672024963200092,0.05592749279662967,-0.10466390504539012
1681262552228154400,7.635154296875,-0.018285013753175733,0.011859510750323533,0.11831366021335124
1681262552238186500,7.6451865234375,-0.015622516545653341,0.08426248366013168,0.24018238255977628
1681262552248218600,7.655218505859375,-0.04592296226322651,0.15495368421599268,0.2293810025602579
1681262552258250500,7.66525048828125,-0.04908405664265156,0.12610694443807005,0.20026187558174133
1681262552268283600,7.67528369140625,-0.0881172593921423,0.21250965499728916,-0.009515431842207909
1681262552278315500,7.6853154296875,-0.011958148819208144,0.3242202636837959,-0.020526655200123787
1681262552288347400,7.695347412109375,0.07529810982942581,0.2763138725183904,-0.03294540726840496
1681262552298379500,7.705379638671875,0.09680617728233337,0.08632380010411143,-0.054933367192745206
1681262552308411600,7.71541162109375,0.032331074762344356,-0.012477642648667096,-0.1134399166971445
1681262552318443500,7.725443603515625,-0.09518062190711497,-0.23057415786758065,-0.014274024546146392
1681262552328475400,7.735475341796875,-0.1717027205735445,-0.6114801853694022,0.12608195612728595
1681262552338507500,7.745507568359375,-0.026885084316134452,0.147631086242944,0.28016484885811804
1681262552348540700,7.755540771484375,0.05086451031863689,0.5194286552682519,-0.13704992486536502
1681262552358572500,7.765572509765625,-0.0825175396889448,0.5875239941120147,-0.47208384350836274
1681262552368604400,7.7756044921875,-0.023229484418034553,0.45764512991979717,-0.5976391454130411
1681262552378636500,7.785636474609375,-0.058412441480159755,0.009715192198008298,-0.36695699712634083
1681262552388668400,7.79566845703125,-0.14677695363163948,-0.2848511069782078,0.025043255841732025
1681262552398700500,7.805700439453125,-0.10693301902115344,-0.3640187517173588,0.11181319227814673
1681262552408732400,7.815732421875,0.04164192394316196,-0.0986992975525558,-0.029334815555810925
1681262552418764500,7.8257646484375,0.0752028327614069,0.13125000641494988,-0.20303426290452478
1681262552428796400,7.83579638671875,0.04908054951131344,0.35916312837973235,-0.37891222333610053
1681262552438829300,7.845829345703125,0.037325229787826535,0.23573051771745085,-0.44562370660603046
1681262552448861700,7.85586181640625,-0.22010405564904212,-0.17117299761101604,-0.1483136616796255
1681262552458893600,7.8658935546875,-0.18343992011845112,-0.23995441902279852,0.1000420904636383
1681262552468925400,7.875925537109375,-0.08870879554450511,-0.3880539995603263,0.17896365148723126
1681262552478957300,7.885957275390625,-0.003747369834780693,-0.44152401620224113,0.2729103476852178
1681262552488989700,7.89598974609375,0.029909400573372838,-0.28970789935961366,0.2285615028709173
1681262552499021600,7.906021484375,0.02883271125257015,-0.049818362266570326,0.038785949990153314
1681262552509053400,7.916053466796875,0.042587680360674854,0.2410654490046203,0.004513093510270119
1681262552519086600,7.926086669921875,0.1432154617577791,0.25684125641584393,-0.044323710373044015
1681262552529118500,7.936118408203125,0.016974515676498412,-0.06063084818199276,-0.08947744182944298
1681262552539150600,7.946150634765625,-0.059717094337940216,-0.09449410094767809,-0.09357903192937374
1681262552549182500,7.956182373046875,-0.1459475170701742,-0.0330023981526494,-0.02266834340393543
1681262552559214600,7.966214599609375,-0.12416647789478301,0.09992474769428372,0.09553425765037536
1681262552569246500,7.97624658203125,0.07549976988136768,0.2805846817053854,0.23523557380735874
1681262552579278600,7.986278564453125,0.14564765734076499,0.2749341085977852,0.19702654692232607
1681262552589310500,7.996310546875,-0.00154021517932415,-0.05544496997669339,0.093048870575428
1681262552599343600,8.006343505859375,-0.11935761630833149,-0.34831089497581125,0.04306406570076942
1681262552609375500,8.01637548828125,-0.1280962185591459,-0.38213513090535994,0.09638707508742808
1681262552619407400,8.026407470703125,0.0591033463537693,-0.24012027710899708,0.15458675059974192
1681262552629439500,8.036439453125,0.11222294212281703,-0.27939342609420414,0.03469546580612659
1681262552639471600,8.0464716796875,-0.03321896351277828,-0.30846783714815973,0.030351299121975896
1681262552649503500,8.05650341796875,-0.0051841246396303175,-0.2210080187514424,0.13725333848297594
1681262552659535400,8.066535400390626,-0.010910101071000098,-0.13031024134680627,0.15228548792004584
1681262552669567500,8.0765673828125,0.03116904524564743,-0.0013135668165981768,0.26277999881505965
1681262552679599600,8.086599609375,0.04209551292955875,0.17362711276486514,0.30798925985097886
1681262552689632500,8.096632568359375,0.06882686798870563,0.3247947025708854,0.24092472535967827
1681262552699664600,8.10666455078125,0.20760522408187387,0.1783219925828278,0.10709843871593475
1681262552709696500,8.116696533203125,0.11961655950546264,0.03817892400771379,-0.11829437099099159
1681262552719728400,8.126728271484374,-0.0942775355875492,-0.025212182667851447,-0.3550871111124754
1681262552729760500,8.136760498046876,-0.1179191079378128,-0.06186521228253841,-0.39026422295570373
1681262552739792600,8.146792724609375,-0.048695934107899665,-0.05990224164649844,-0.2015086607724428
1681262552749824500,8.156824462890626,-0.004232523003220558,0.025970015297830103,0.024357027143239972
1681262552759856400,8.1668564453125,-0.07722937015295028,0.20846081799790261,0.09678981066942215
1681262552769889500,8.1768896484375,-0.07082943998277187,0.32664895213544365,0.007015431720018387
1681262552779921400,8.18692138671875,-0.013032500052452087,0.2709022227331996,-0.04386018451452255
1681262552789953500,8.19695361328125,-0.028137130203843116,-0.09903291342109441,0.10831833589971065
1681262552799985400,8.2069853515625,-0.03935410526692867,-0.9372840649828315,0.43707858110070225
1681262552810017500,8.217017578125,-0.019463994404673574,-1.9897940532967446,0.9369967724740504
1681262552820049400,8.22704931640625,-0.29394086075425147,-1.8187227624945341,1.2276935367405415
1681262552830081500,8.23708154296875,-0.2682505391806364,-0.2374767768628895,0.6820312468022107
1681262552840113400,8.247113525390626,-0.28455694633722306,0.6425362717598676,0.2727250542461872
1681262552850146600,8.257146484375,-0.03806231189072132,0.47414910547509787,0.23340192863941192
1681262552860178400,8.267178466796874,0.0037567221850156782,0.8654919174477458,-0.20220424182116983
1681262552870210300,8.277210205078125,0.033981764578819275,1.0161755231291054,-0.42530163406729693
1681262552880242700,8.28724267578125,0.15519699145257473,1.2417526033617556,-0.7557984938025474
1681262552890274600,8.297274658203126,0.41915655544102187,1.133819321256876,-0.8912865761786699
1681262552900306400,8.307306396484375,0.43669981091618537,0.8108367826744913,-0.9061825320154427
1681262552910338300,8.31733837890625,0.1502437529593706,0.6736800364337862,-0.40812312025129793
1681262552920370700,8.32737060546875,-0.15730886904001234,0.37627851383164523,-0.2879272995531559
1681262552930402600,8.337402587890624,-0.470016974106431,-0.32634894627556205,-0.04659516243636608
1681262552940435500,8.347435546875,-0.6036567982673645,-0.8944676904328167,0.4523398631185293
1681262552950467600,8.357467529296875,0.23720716614127157,-0.02791545027717948,0.9991495695263147
1681262552960499500,8.36749951171875,0.7102472874611616,0.436568001230061,0.8397007658481598
1681262552970531600,8.377531494140625,0.35120530124306676,0.34466245547086,0.22557050436139106
1681262552980563500,8.3875634765625,-0.19061960248947143,0.48405295211300253,-0.1365583419561386
1681262552990595600,8.397595703125,-0.40128129153251646,0.6834418442524969,-0.0992751977443695
1681262553000627500,8.40762744140625,-0.16297405519485472,0.6731812931314111,0.17241174562573433
1681262553010659600,8.41765966796875,0.009662731358408927,0.34692660101056094,0.3514683360934257
1681262553020692500,8.4276923828125,0.1364110424399376,-0.02328340656235814,0.4193126227855682
1681262553030724600,8.437724609375,0.41870647358596325,0.06839417565986514,0.21348960594534871
1681262553040756500,8.447756591796875,0.31792788554131984,0.5081019362203777,-0.13329261815845966
1681262553050788400,8.457788330078126,-0.055525487866997715,1.0580125312529505,-0.4087766157239675
1681262553060820500,8.467820556640625,-0.289905906149745,0.9873338979177176,-0.4366366825520992
1681262553070852600,8.4778525390625,-0.30094343299269677,0.8599401285395025,-0.4328694389730692
1681262553080884500,8.487884521484375,-0.23774551080167292,0.40119142129197716,-0.1849742900788784
1681262553090916600,8.49791650390625,-0.059414896520972246,-0.18904650795385242,0.2442436406493187
1681262553100949500,8.507949462890625,-0.3126356243520975,-0.0970507996931672,0.5354740734010934
1681262553110981400,8.5179814453125,-0.21703531572818754,0.11991028175503014,1.1241039829283952
1681262553121013500,8.528013427734376,-0.21375439436137675,0.07935797967948019,1.1825801372945308
1681262553131045600,8.538045654296875,0.0023801731348037716,0.2858717552628368,0.7570569694310426
1681262553141077500,8.548077392578126,0.4754834228187799,-0.0009421762209385633,0.7232201662808656
1681262553151109400,8.558109375,0.5705658450484276,-0.3271170080386102,0.5616916337192058
1681262553161141800,8.568141845703124,0.47902445642650127,-0.8870914625763893,0.3055553107023239
1681262553171174400,8.57817431640625,0.582601735278964,-2.008906896176189,-0.20921441284418105
1681262553181207000,8.58820703125,0.6285802271217107,-1.9583935373827814,-0.948332990002632
1681262553191239000,8.598239013671876,0.39756197874844074,-0.8976103723727166,-0.6369365520566701
1681262553201270800,8.608270751953125,0.09073357937037944,0.508536309049651,-0.45155660378634926
1681262553211303000,8.618302978515626,-0.06924772374927997,0.728062930136919,-0.2817512412667274
1681262553221335000,8.6283349609375,-0.19704934327602386,0.4141344894953072,-0.4129033402651548
1681262553231367000,8.638366943359374,-0.08438216451704501,0.6465441191617399,-0.6474059236228465
1681262553241398800,8.648398681640625,-0.12613923927247522,0.46547772324159736,-0.4648948087871074
1681262553251432000,8.658431884765625,-0.24865736543834208,0.19977336141243576,-0.15620938336551188
1681262553261463800,8.6684638671875,-0.48885319200158117,0.12006678749099373,-0.05572188722193241
1681262553271496000,8.678495849609375,-0.5097913506120443,0.24306049527935683,-0.1573983008891344
1681262553281528000,8.688528076171876,-0.15735329270362852,0.566063711323589,-0.1376917299002409
1681262553291560000,8.698559814453125,0.09601941081881522,0.5325212149448693,0.212567814925313
1681262553301591800,8.708591796875,0.17967384558320043,0.3068399436853826,0.42944180261194703
1681262553311624000,8.7186240234375,0.31811025637090207,-0.19168518589437006,0.5811474448174238
1681262553321656000,8.728656005859374,0.2100216375738382,-1.4144123323991893,0.7673778724372387
1681262553331689000,8.73868896484375,-0.03182955498099327,-2.1350077031344172,0.37525662343800065
1681262553341720800,8.748720947265625,0.196760004940629,-2.2374149152942002,-0.2290063240289688
1681262553351753000,8.7587529296875,0.19258768769204615,-1.4266016596257687,-0.6620972967982292
1681262553361784800,8.768784912109375,0.13101356731057165,-0.5860315635971725,-0.2997784808665514
1681262553371817000,8.77881689453125,0.3573866202265024,-0.7121265253365039,0.4095113597393036
1681262553381848800,8.788848876953125,1.7746902901530264,-4.117450516885519,2.4660405694425105
1681262553391881000,8.798880859375,3.7061949438273905,-3.677355802834034,2.2137650135070084
1681262553401912800,8.808912841796875,-1.1388275048077106,2.7475802137851715,0.4166074554800987
1681262553411945700,8.81894580078125,-5.779099534270167,3.698160690453648,-0.11839490875601767
1681262553421978000,8.82897802734375,-2.284171844163537,3.0241663273736834,-1.8360791170954702
1681262553432010000,8.839010009765625,0.8689642697334289,2.173616250731051,-1.8809774124860763
1681262553442041900,8.849041748046876,1.685726643064618,0.32521563139669596,-0.9511422022044658
1681262553452073700,8.85907373046875,1.2895862215518952,-0.5482971684865653,-0.2314811897099018
1681262553462106000,8.869106201171874,0.039324294650554655,-0.4196387860000133,0.10083119501471519
1681262553472138000,8.879137939453125,-0.11306173103451728,-0.3893735577262938,0.10000175845324992
1681262553482169900,8.889169921875,0.3126473147898912,-0.200006001124531,0.1731961740016937
1681262553492203000,8.899203125,0.47169922810494896,0.19015052367299795,0.14092588951587676
1681262553502235000,8.90923486328125,0.422584191802144,0.3246596049491316,-0.053961891812086105
1681262553512266800,8.919266845703126,-0.07360299634933472,0.1770812718067318,-0.21602818451225755
1681262553522299000,8.929298828125,-0.4465659558922052,0.0462874847266823,-0.14308394433259963
1681262553532331000,8.9393310546875,-0.6027262394189834,-0.07621756276190281,-0.12026654784679412
1681262553542363000,8.94936279296875,-0.5332148962974548,-0.1494140241369605,-0.07359422852098942
1681262553552394800,8.959394775390624,-0.26519232065379617,-0.15255692527256906,-0.05966331832408905
1681262553562427000,8.969427001953125,-0.12047522216141224,-0.023014015036448836,-0.0006809680014848708
1681262553572460000,8.9794599609375,-0.1547837344765663,0.07129048162326217,0.08058861745297909
1681262553582492000,8.989491943359376,-0.005933481702208519,0.07484254808165132,0.1823462796628475
1681262553592523800,8.999523681640625,0.34227439129054543,-0.07774762187339365,-0.033120763835310936
1681262553602556000,9.009555908203126,0.16930559630393982,-0.09832929519638418,-0.144797177991271
1681262553612588000,9.019588134765625,0.033982933622598646,-0.05122252997606992,-0.10715163020789623
1681262553622620000,9.029619873046874,0.07080079841017722,-0.08593538530841469,-0.02015957545340061
1681262553632651800,9.03965185546875,0.05775017817914486,-0.07800422698296607,0.060202832028269766
1681262553642684000,9.049683837890624,0.026408698976039886,0.025662118392437695,-0.020348376023769377
1681262553652716800,9.059716796875,0.0020195231288671492,-0.02845269895903766,-0.07788111205995082
1681262553662749000,9.0697490234375,-0.10860884327888488,0.009577537292987107,-0.1606529187709093
1681262553672781000,9.079781005859376,-0.21816052036583422,0.052790144618973134,-0.17878478778898715
1681262553682813000,9.08981298828125,-0.23040976108610628,0.02969188536517322,-0.1492722775787115
1681262553692844800,9.0998447265625,-0.1751058070152998,-0.041471608877554536,-0.16169161416888236
1681262553702877000,9.109876953125,-0.1160544831097126,-0.04320654291138053,-0.11147124697268009
1681262553712909000,9.119908935546874,-0.06772387518286704,-0.07575988212227822,-0.031283611536026
1681262553722941000,9.12994091796875,-0.016492869639396668,0.021948650827258824,-0.10554887118637561
1681262553732973800,9.139973876953125,-0.036197687062621116,0.11107048415206372,0.05883505080640316
1681262553743006000,9.150005859375,0.0014735796838998795,-0.48338126339651644,0.33257015887796876
1681262553753037800,9.160037841796875,-0.2512590723693371,-0.24744528623484074,0.08818564845323562
1681262553763070000,9.170070068359376,-0.003433481580018997,0.27161146698109806,0.18104454941451548
1681262553773101800,9.180101806640625,-0.04385843094885349,-0.06491590509004891,0.2499333767235279
1681262553783134000,9.190134033203124,-0.7585556835561991,-0.21414390513561665,0.1598199750781059
1681262553793165800,9.200165771484375,0.446764108812809,-0.10891557114049792,0.10817103638350963
1681262553803198000,9.210197998046874,0.36441198881864545,-0.23480850750170645,0.06594166794121264
1681262553813231000,9.220231201171876,0.563293223696947,0.10178170067258178,-0.11148293741047381
1681262553823263000,9.230262939453125,0.43118484688699243,0.605228358433023,-0.2115080767393112
1681262553833294800,9.240294921875,0.027297172248363494,1.5223419612422584,-0.41230888150334355
1681262553843326700,9.25032666015625,-0.8439718672960996,1.178924245135486,-0.2112637465894222
1681262553853359000,9.260359130859374,0.17444179014861583,-1.2281538477286695,0.2661357389837503
1681262553863391000,9.270390869140625,0.24207623348236082,-0.9408725909940898,0.7763742488414048
1681262553873422800,9.2804228515625,-0.18044073830246923,0.017820757242292165,0.5405892244577407
1681262553883454700,9.290454833984375,0.032651392757892604,-0.05503419721871614,-0.39872809991836544
1681262553893487900,9.30048779296875,0.2048848592072725,-0.06994337786324321,-0.1499216813981533
1681262553903519700,9.310519775390626,0.03283376358747482,0.03307093334421515,0.2108423063069582
1681262553913552000,9.3205517578125,-0.08730185135602951,-0.1300875385068357,0.28023499148488046
1681262553923584000,9.330583984375,-0.03554828324317932,-0.23926870178095994,0.33850890127718447
1681262553933615900,9.340615966796875,-0.0911275471240282,-0.1448181477140635,0.28946693021059033
1681262553943647700,9.350647705078124,-0.18774258574843405,-0.21994681926071644,0.2125537863999605
1681262553953680000,9.360679931640625,-0.2088543473601341,-0.4036835303686559,0.2860492307215929
1681262553963712000,9.3707119140625,-0.197787594422698,-0.5180827936172485,0.3977987101137638
1681262553973745000,9.380744873046876,-0.1207949556350708,-0.41825522268712517,0.528913984233141
1681262553983776800,9.39077685546875,-0.053740942537784574,-0.2796151060208678,0.5455103142470121
1681262553993809000,9.400808837890626,0.04857201546728611,-0.23696057096906004,0.49351592311561104
1681262554003841000,9.410841064453125,0.045377603340148925,-0.34191856359019873,0.35824703644812106
1681262554013873000,9.420872802734374,-0.024387422281503677,-0.3707634036719799,0.06640928545296192
1681262554023904800,9.43090478515625,-0.11259119091331958,-0.17099939460977912,-0.365563496941328
1681262554033937000,9.44093701171875,-0.02035831289589405,0.12440660679358988,-0.7864145813405513
1681262554043969000,9.450968994140625,-0.16859014151096344,0.5301582486731932,-1.208022037065029
1681262554054002000,9.461001953125,-0.4879185414999723,0.8144519044317304,-1.0070423686027525
1681262554064034000,9.471033935546876,0.06643149728477,1.434361187711358,0.2012912186294794
1681262554074066000,9.48106591796875,1.1564636992633341,1.8441314906477928,0.6202794317662715
1681262554084097800,9.491097900390624,0.6269236920863389,-0.19215342446062714,-0.0766752434015274
1681262554094130000,9.5011298828125,-0.38838089342713356,-0.8020210235342383,-0.30851240694224835
1681262554104162000,9.511162109375,-0.5775298388421535,-0.2974996126817539,-0.5810375547021627
1681262554114194000,9.52119384765625,-0.17143091789484022,0.5579358613822609,-0.6609001959681511
1681262554124225800,9.531225830078125,0.29299978051185604,0.04011025739647448,-0.6352589742332696
1681262554134259000,9.541259033203126,0.24190204595923423,-0.40870183345470573,0.6184276664197444
1681262554144290800,9.551290771484375,0.12182020702958106,-0.17301756603177637,0.9100374538779258
1681262554154323000,9.561322998046874,-0.12235095290541648,-0.09209544230811298,0.9163970520377158
1681262554164354800,9.571354736328125,-0.03364858710169792,-0.1534030207078904,0.6906587898939848
1681262554174387000,9.581386962890624,0.10982932498455047,-0.06725384651832282,0.3815641991496086
1681262554184418300,9.591418212890625,0.225246094712615,-0.08172434348464011,0.16627543482780455
1681262554194450200,9.6014501953125,0.26683599620759485,-0.11516345255412161,0.1852963616400957
1681262554204482000,9.61148193359375,0.15870704540014266,0.0883090556371957,0.16456453925669193
1681262554214515200,9.62151513671875,-0.0629594372600317,0.299383965123631,0.037222938457131385
1681262554224547000,9.631547119140626,-0.17359247984290122,0.32695750662796197,0.05340367340743542
1681262554234579200,9.6415791015625,0.1925643068164587,0.4604334819966927,-0.02849427307844162
1681262554244611300,9.651611328125,0.48270402172207827,0.23082331032305956,-0.1426280172586441
1681262554254643200,9.661643310546875,0.24021394674181937,-0.3168264636380598,0.16015256803333758
1681262554264675000,9.671675048828124,-0.12087269704639911,0.5291763614963739,-0.2534966221630573
1681262554274707200,9.681707275390625,-0.53609600469172,1.3029504377767442,-0.6033119303524493
1681262554284739300,9.6917392578125,-0.7647223894923925,0.8887127071026713,-0.1972434045433998
1681262554294772200,9.701772216796876,-0.6382809524029492,0.7535919236689805,-0.155655256614089
1681262554304804000,9.71180419921875,-0.4103922342270612,0.5735210050595924,-0.19643208816051483
1681262554314836200,9.721836181640626,-0.33469664951264855,0.06899992300067097,-0.11908815171718597
1681262554324868000,9.7318681640625,0.17248890251517296,-0.18658128688409922,-0.03180909671485424
1681262554334900200,9.741900146484374,0.6860474967062473,-0.09894063202776014,0.25824878512620925
1681262554344932000,9.75193212890625,0.669939826992154,0.11212357340157031,0.40136370911896224
1681262554354964200,9.761964111328124,0.21183307090997694,0.33736185013391073,-0.021310499054193497
1681262554364996000,9.77199609375,0.09900865576267241,0.4540431233724579,-0.4149655334919691
1681262554375029000,9.782029052734375,0.05334931287169456,0.5073470992650836,-0.7453595173746347
1681262554385061400,9.792061279296876,-0.1486982770830393,0.5678447860540822,-0.8321867369562387
1681262554395093200,9.80209326171875,-0.24882979939579963,0.2944095742445439,-0.6184960554808377
1681262554405125000,9.812125,-0.275976164996624,-0.23443956459145993,-0.37655484655499455
1681262554415157000,9.822156982421875,-0.4382739283651113,-0.18316267407964915,-0.1812052929341793
1681262554425189400,9.832189453125,-0.36995267181098457,0.2964755668636411,0.022128829699754715
1681262554435221200,9.84222119140625,-0.12336392934024333,0.532092760399729,0.33931612600684163
1681262554445253000,9.852253173828124,-0.08840484416186808,0.32531912830378856,0.5026373872041702
1681262554455286300,9.862286376953126,-0.23081308118999003,-0.13351944918427616,0.2545879245311022
1681262554465318100,9.872318115234375,-0.18217793735861776,-0.3575643514135852,0.18536767331063747
1681262554475350000,9.88235009765625,-0.08769114293456078,-0.4894808223806321,0.1788701279848814
1681262554485382100,9.892382080078125,-0.04625789330601692,-0.6245346780579537,0.10060673860907554
1681262554495414300,9.902414306640624,-0.05398410364389419,-0.28661468258462847,-0.028042437657713887
1681262554505446100,9.912446044921875,0.04790156885981559,0.3391497564639896,-0.1699462322950363
1681262554515478000,9.92247802734375,0.8988298311650752,1.244780426750332,-0.10590893667042255
1681262554525510100,9.93251025390625,0.6846721166998148,1.1197950336880982,-1.0624392616540193
1681262554535543300,9.942543212890625,-0.1669961503177881,0.9985718427035957,-1.1698112566143273
1681262554545575200,9.9525751953125,-0.01208908172249794,0.9188752787195146,-1.0581044473201036
1681262554555607000,9.96260693359375,-0.006812018102407455,0.8303415474809706,-1.3360235630780457
1681262554565639200,9.97263916015625,0.19292846395373342,0.800702196020633,-1.2766554283082485
1681262554575671300,9.98267138671875,0.2121013664573431,0.3054019467715174,-0.7194786416649818
1681262554585703200,9.992703125,-0.27859628436714406,0.02362663050945848,-0.0080517890304327
1681262554595735000,10.002735107421875,-0.048041854113340374,0.2516033922949806,0.7409235807538032
1681262554605767200,10.01276708984375,0.30521687252819535,0.3758636859530583,1.3049006950616835
1681262554615800000,10.022800048828126,0.30579262658953665,0.630609833253175,1.3991998579591511
1681262554625832200,10.032832275390625,0.21730536484122276,0.7332865100041032,0.7243792731881141
1681262554635864300,10.0428642578125,0.21090952632427215,0.9772292680107056,-0.3089315091371536
1681262554645896200,10.052896240234375,0.22163141134679315,1.197816211805865,-1.027267995029688
1681262554655928000,10.062927978515624,0.22776246144771575,1.0869016488678753,-1.0027309351444245
1681262554665960200,10.072960205078125,-0.042133506852388376,0.6984388493109494,-0.8150298504501581
1681262554675992300,10.082992431640625,-0.3625532092094421,0.528973641998507,-0.39182197379171846
1681262554686024200,10.093024169921875,-0.42940147060155864,0.1475744972174987,0.16295710406005381
1681262554696057000,10.10305712890625,-0.3349129226118326,-0.47446018071826546,0.6522030947715044
1681262554706089200,10.113089111328126,-0.11343056434690951,-0.7233242842424661,0.75913202213943
1681262554716121000,10.12312109375,0.04973813663721084,-0.32253406416252256,0.540193503138423
1681262554726153200,10.1331533203125,0.14313830486834048,-0.016918913031741974,0.46105917614698405
1681262554736185000,10.14318505859375,0.20990853258818387,0.2236745345469564,0.4780991582751274
1681262554746217200,10.15321728515625,0.24685762253999707,0.47959093120284374,0.45823944255113597
1681262554756249000,10.1632490234375,0.17939824351221323,0.7114703995153308,0.3929635450422764
1681262554766281200,10.17328125,0.0640726591989398,1.0407676011372358,0.40917175252139565
1681262554776313300,10.183313232421876,-0.04667582645714283,0.9527852932363748,0.6598650077015161
1681262554786346200,10.19334619140625,-0.15517010344564913,0.6113717565588652,0.7397913618534803
1681262554796378000,10.203378173828124,0.05917933419942856,0.14276369940228759,0.8240928623497485
1681262554806410000,10.213409912109375,0.40206162825524805,-0.5788058501273393,1.2378145332604646
1681262554816442400,10.2234423828125,0.30361820515990257,-0.9815052648294716,1.4538321963787078
1681262554826474200,10.23347412109375,0.1648749203801155,-1.329569418502599,1.6605892791986465
1681262554836506000,10.243506103515625,0.24909721816033123,-1.389101073271036,1.4095195919215677
1681262554846538200,10.253538330078126,0.10920184073597192,-1.036003674671054,0.9472820196449756
1681262554856570400,10.2635703125,0.4747475097596645,-1.3307982296451926,0.5875175643712282
1681262554866603300,10.273603271484374,0.9559954874545336,-1.4957389087378978,0.18167407948970793
1681262554876635100,10.28363525390625,0.9913567236930131,-1.3153439092732966,-0.02468786653280258
1681262554886667300,10.293667236328124,1.4710647784695028,-0.9740648126304149,-0.004003390422463417
1681262554896699100,10.30369921875,1.0474240633517504,-0.13380699742138386,-0.01699380489885807
1681262554906731000,10.31373095703125,-0.3128045511782169,0.5648030437380075,0.4585211821019649
1681262554916763400,10.323763427734375,-0.910850231565535,0.9513342176452279,0.6042687926858663
1681262554926795300,10.333795166015625,-0.8121785526722669,1.065429675641656,0.5197527726560831
1681262554936827100,10.3438271484375,-0.21943974652141332,0.44328488839492197,0.3965168536096811
1681262554946860000,10.353860107421875,0.04193155453950166,-0.2512127490095794,0.26999709058701993
1681262554956892200,10.36389208984375,0.039330432130396366,-0.5941361057281493,-0.011868716970086096
1681262554966924300,10.37392431640625,-0.221372468149662,-0.6103352531179785,-0.3315022373855114
1681262554976956200,10.3839560546875,-0.20605682559609412,-0.7022519047930836,-0.3911836758881807
1681262554986988300,10.39398828125,0.04169160830378532,-1.1142021821171044,-0.42554947134852406
1681262554997020200,10.404020263671875,0.7059995668888092,-1.8273036899656057,-0.8709253406733274
1681262555007052300,10.41405224609375,0.8293094279542564,-2.0455802379265426,-1.166893323341012
1681262555017084200,10.424084228515625,0.5711079891011118,-1.998718679638952,-0.7940209646910429
1681262555027117300,10.434117431640624,0.49713294456899165,-2.1071305390410124,-0.39134675749540326
1681262555037149200,10.444149169921875,0.3392603041663766,-2.268081125584245,-0.42694881675243374
1681262555047181000,10.45418115234375,0.060575756993889805,-2.191537837999314,-0.25156127018630503
1681262555057213200,10.464213134765625,-0.11119506037980317,-1.0080136978529393,0.6989291901111603
1681262555067245300,10.474245361328125,-0.198942025154829,-0.08610957283154129,0.3991758436858654
1681262555077277200,10.484277099609375,-0.24933073465526104,0.13908289199769497,-0.29593641848564145
1681262555087309000,10.49430908203125,-0.18748861098736525,-0.06975479648858308,-0.49343292100727554
1681262555097342200,10.50434228515625,-0.24420418542176484,-0.366567851678282,-0.24635902536809443
1681262555107374000,10.5143740234375,-0.16877952660322187,-0.3449237367555499,-0.025655834782123563
1681262555117406200,10.52440625,-0.23484189831465482,0.052001843785494564,-0.027964696246385572
1681262555127438000,10.53443798828125,-0.22583353921175,0.19223653616681693,0.0643102673470974
1681262555137470200,10.54447021484375,-0.21450316690206525,0.18147914143949745,-0.10398410608768463
1681262555147502000,10.554502197265625,-0.20870120262503622,0.024986557218432424,-0.3880202434211969
1681262555157534200,10.5645341796875,-0.1670905506029725,-0.17212869090065358,-0.39348844569921493
1681262555167566300,10.57456640625,-0.0309001651763916,-0.2304787346690893,-0.11292612195610999
1681262555177599200,10.58459912109375,-0.02370586975812912,-0.21205124370530246,0.1669786146610975
1681262555187631600,10.594631591796874,0.04582739293426275,-0.01830664106309414,0.2948544684678316
1681262555197663500,10.60466357421875,0.06130582483410835,0.29837153667807575,0.31441490898430347
1681262555207695400,10.6146953125,0.038522622878849506,0.43273309924229975,0.127130003875494
1681262555217727500,10.6247275390625,0.010518179143965243,0.43746188132986424,-0.050067806982994074
1681262555227759600,10.634759521484375,-0.041141280944645406,0.3084779201507568,-0.15702069974839686
1681262555237791500,10.64479150390625,-0.10255582685023545,0.0696975133433938,-0.18262217399477956
1681262555247824400,10.654824462890625,-0.06695581341981888,-0.10962415780127048,-0.14444529581367968
1681262555257856500,10.6648564453125,0.000974105729162693,-0.11005261234641074,-0.1222457389652729
1681262555267888600,10.674888671875,0.06722644705474376,-0.07357830029949546,-0.06284019479453563
1681262555277920500,10.68492041015625,0.026461305946111676,-0.012847206613421439,0.053577860930562014
1681262555287952400,10.694952392578125,0.05468436086773872,-0.061712067547440526,0.1919499743103981
1681262555297984500,10.704984619140625,0.07508651290535927,-0.1463308172993362,0.13016074987351894
1681262555308016600,10.7150166015625,0.03440291260033846,-0.16429960471019148,0.09345686685442924
1681262555318049500,10.725049560546875,0.006201484988629818,-0.09312135128974915,0.0846744254618883
1681262555328081700,10.73508154296875,-0.020353344459831713,0.06442395685464143,0.018000936114788053
1681262555338113500,10.745113525390625,-0.06944061597287654,0.13304945705235002,-0.01617430520951748
1681262555348145400,10.7551455078125,-0.06342062503099441,0.12106763509660959,0.03697159404456615
1681262555358177500,10.765177490234375,-0.03889759367108345,0.10260784929841756,0.01221884558200836
1681262555368209700,10.775209716796875,-0.04669394663572311,0.06319894510433077,0.00699088180065155
1681262555378241500,10.785241455078125,0.00004398527219891548,-0.0025987843215465544,0.022446809607744214
1681262555388274400,10.7952744140625,-0.005782967315614223,-0.06759294227957725,-0.0007563713252544403
1681262555398306600,10.805306640625,0.04029138611704111,-0.12882161022424696,0.07218085459172725
1681262555408338400,10.81533837890625,0.04881663787811994,-0.034788404786586756,0.13111936577260494
1681262555418370600,10.82537060546875,0.024832243439555167,-0.007139496491104364,0.09611468788683414
1681262555428402400,10.83540234375,-0.008449556176364422,0.048786096609383815,0.09522972174584865
1681262555438434600,10.8454345703125,-0.031130759061872956,0.03102379155606031,0.03675064477026462
1681262555448466400,10.855466552734375,-0.03456877068653703,0.004506225378066301,-0.04879413378536701
1681262555458498600,10.86549853515625,-0.04463175340890884,0.06706774936169385,-0.1269903031438589
1681262555468531700,10.87553173828125,-0.04060059819668531,0.06784881673678755,-0.047881110593676564
1681262555478563600,10.8855634765625,0.010109306082129477,0.027479396947473287,0.10123100798726081
1681262555488595500,10.895595458984374,0.03702215518802404,0.05875628648176789,0.20700959627628326
1681262555498627300,10.90562744140625,0.03191986361294984,0.024184593185782432,0.26301088496148584
1681262555508659700,10.91565966796875,0.014216741400957108,-0.024888795932382343,0.27327918099761006
1681262555518691600,10.925691650390625,0.00034866730719804764,-0.04452946207821369,0.23763971233963965
1681262555528723500,10.935723388671875,-0.015559680442512035,-0.008191928153485059,0.09861994870603084
1681262555538756600,10.945756591796876,-0.034406419731676574,0.10793503567054867,-0.037116555473208426
1681262555548788500,10.95578857421875,-0.03407294999361038,0.14177987599670885,-0.12930734791457651
1681262555558820600,10.965820556640624,0.04738981994539499,0.0026037527576088905,-0.1896054570108652
1681262555568852500,10.9758525390625,0.13745236818641424,-0.1682625169917941,-0.13589023343622683
1681262555578884600,10.985884521484374,0.13761632657647133,-0.19232859836444258,0.11941840658485889
1681262555588916500,10.99591650390625,0.17213585129380224,-0.5181885920792818,0.4943289930641651
1681262555598948400,11.0059482421875,0.24741964033693073,-0.5234262004718184,0.8250801198214293
1681262555608981500,11.0159814453125,0.21003478931635616,-0.15493132625371217,0.7343342654913664
1681262555619013600,11.026013671875,0.08248334515839814,0.06926467488408088,0.4725304182320833
1681262555629045500,11.03604541015625,0.03167494894117117,0.2064811884880066,0.23725275884866714
1681262555639077400,11.046077392578125,-0.027820027078688143,0.1936694915793836,0.08718611602187157
1681262555649109500,11.056109619140624,-0.019386545254290104,0.16643413252085446,0.1070832411468029
1681262555659141600,11.0661416015625,-0.020929683043062686,0.08172522026747464,0.09644611179828644
1681262555669173500,11.076173583984374,0.025054654018580914,0.07564604648426175,-0.03998597342967987
1681262555679206700,11.08620654296875,-0.010355097536742687,0.12887480171620844,-0.12538169890344142
1681262555689238500,11.096238525390625,-0.022409400206804275,0.2208309086188674,-0.20374387247860432
1681262555699270400,11.1062705078125,-0.045562312257289884,0.35134850910604,-0.2972410713434219
1681262555709302500,11.116302490234375,-0.12943944986164568,0.24991525654494762,-0.38299803134500976
1681262555719334700,11.126334716796874,-0.24347762471288442,0.01774754587560892,-0.5616022018700838
1681262555729366500,11.136366455078125,-0.22799539342075584,-0.15541998655349015,-0.566105943030119
1681262555739398400,11.1463984375,-0.18693623780161142,-0.30220307766497134,-0.33412557162642476
1681262555749431600,11.156431640625,-0.14583353530168533,-0.3168862675338983,-0.1647965944468975
1681262555759463400,11.16646337890625,-0.09928703431263565,-0.12838804111257196,0.018217793735861777
1681262555769495600,11.17649560546875,-0.15401260397359728,0.026731793450564145,-0.0578963086515665
1681262555779527400,11.18652734375,-0.09056830580607056,0.06373699750378728,-0.038947278031706806
1681262555789559600,11.1965595703125,-0.128504507099092,0.03167290311455726,-0.06716974843144416
1681262555799591400,11.20659130859375,-0.05658639509677887,0.02147679553180933,-0.001110007068514824
1681262555809623600,11.21662353515625,-0.028291005591303108,-0.1828390316158533,0.13590601552724837
1681262555819656700,11.22665673828125,-0.004432721750438213,-0.21716712541431188,0.1783387975871563
1681262555829688600,11.2366884765625,0.044971945148706435,-0.09431611403226851,0.22511399276554583
1681262555839720400,11.246720458984376,-0.05210018959343433,0.05167392700538039,0.1415776314228773
1681262555849752300,11.25675244140625,-0.02174509107917547,0.02925269023030996,0.014392097967863083
1681262555859784700,11.26678466796875,-0.04956716398447752,0.16604776355177164,-0.1508674378156662
1681262555869816600,11.276816650390625,-0.028326076904684302,0.22103768323734402,-0.1530623175114393
1681262555879848400,11.286848388671874,0.007337211020290851,0.12021350248530506,-0.08295885371565818
1681262555889881600,11.296881591796875,0.13600100033432244,0.14898089341670273,0.046046880903840064
1681262555899913500,11.30691357421875,0.17849778754115103,0.10899302029088138,0.21412322767376898
1681262555909945600,11.316945556640626,-0.007596446478366851,-0.05700052885562181,0.084469842800498
1681262555919977500,11.3269775390625,-0.12487024224996567,-0.199460496070981,-0.038008535876870156
1681262555930009600,11.337009521484376,-0.15422887707278132,-0.1800266045436263,-0.01826338644325733
1681262555940041500,11.34704150390625,-0.09511690902113915,-0.10187471271827817,0.03664367726445198
1681262555950073600,11.357073486328124,-0.046074937954545016,-0.045463089666515584,0.08837854067683219
1681262555960106500,11.3671064453125,0.02278700134754181,-0.005441752662509679,0.06289513985216617
1681262555970138600,11.377138671875,0.0330807240858674,0.028667583818733692,0.1066957031339407
1681262555980170500,11.38717041015625,0.05653174230009317,-0.049420741251111025,0.233306651571393
1681262555990202400,11.397202392578125,0.08735416606515646,0.04161488980576396,0.23283669597208498
1681262556000234500,11.407234375,0.04172419539913535,0.10762786941751837,0.1648825191646814
1681262556010266600,11.4172666015625,0.07724442159160971,0.06791399092748761,0.18161738086640833
1681262556020298500,11.427298583984374,0.09724676065668462,0.20423691669255495,0.15658639998435972
1681262556030331600,11.43733154296875,0.09488529222235083,0.4194534925609827,0.17399579994678496
1681262556040363500,11.447363525390625,-0.01580693320184946,0.47493499515578147,0.03365209423303604
1681262556050395400,11.4573955078125,-0.224317289429903,0.15842764393687248,-0.07867372374236584
1681262556060427500,11.467427490234375,-0.30371377448886633,-0.44474078629165886,-0.12823884190022944
1681262556070459600,11.477459716796876,-0.25850743606239557,-0.6091797994725405,-0.24256781639158725
1681262556080491500,11.487491455078125,-0.07916881378293036,-0.6034478316918015,-0.297733238774538
1681262556090523400,11.4975234375,0.22154753245562314,-0.2625765851974487,0.0549164160579443
1681262556100556500,11.507556640625,0.22369302005171773,0.21094722798615692,0.24752573105990885
1681262556110588700,11.517588623046874,0.10360533590316771,0.13305837101116777,0.07020750869214534
1681262556120620500,11.52762060546875,0.01300707335025072,0.08370543429926038,-0.15562778408527372
1681262556130652400,11.53765234375,-0.02701806304603815,0.11921923075094819,-0.15798340730071067
1681262556140684500,11.5476845703125,-0.09939794734120368,0.1236769408121705,-0.07713526212871075
1681262556150716400,11.55771630859375,-0.12329787836670875,0.16024959866702557,-0.02075344969332218
1681262556160748500,11.56774853515625,-0.060922670735418794,0.10613529277220368,0.03248246593177318
1681262556170781700,11.57778173828125,-0.06024257951676845,0.009597849428653717,0.06426876629292964
1681262556180813600,11.5878134765625,-0.059841889761388295,-0.06022518999055028,0.037003742748498915
1681262556190845400,11.597845458984375,-0.030674247466027735,-0.008748831383883953,0.06812193458974361
1681262556200877300,11.607877197265625,0.008036006939411163,0.03668926997184753,0.07450432910323143
1681262556210909400,11.617909423828126,0.0117661333784461,0.029357611909508703,0.041399931880831714
1681262556220941600,11.627941650390625,0.03691635672599077,-0.01252849605306983,0.06112696113586425
1681262556230973400,11.637973388671876,0.04189560644328594,-0.05342369328215718,0.11937632100880145
1681262556241006300,11.64800634765625,0.06559066254645586,-0.0010610533602535724,0.17470657856464386
1681262556251038500,11.65803857421875,0.034957331612706186,0.008687018194049597,0.18895897580087184
1681262556261070600,11.668070556640625,0.0354489145219326,0.035426264298707245,0.14577683667838573
1681262556271102500,11.6781025390625,0.034471009400486946,0.07923559540882706,0.06181552792191505
1681262556281134300,11.68813427734375,0.010193184973299503,0.059344607763737435,0.048750879165530205
1681262556291166500,11.69816650390625,-0.029328970336914062,-0.0005551496647298336,0.06288228037059307
1681262556301198600,11.708198486328126,-0.04143675675988197,-0.06668079587072133,0.1268120239675045
1681262556311231500,11.7182314453125,-0.06604600509852171,-0.06328633112683892,0.0876461347490549
1681262556321263600,11.728263671875,-0.09222206436246633,-0.15256240516528485,-0.00921557211279869
1681262556331295500,11.73829541015625,-0.07066606611460446,-0.016745236965268848,-0.06319967575669289
1681262556341327400,11.748327392578124,-0.04091740906089544,0.021845774974673986,-0.11376607991158962
1681262556351359500,11.758359375,0.06767682117074728,-0.08140665583759546,-0.1273912851601839
1681262556361391600,11.7683916015625,0.057798401235044,-0.003955605757981539,-0.053369186615943906
1681262556371423500,11.778423583984376,0.004019464774429798,-0.007245879475027322,0.06141513042747974
1681262556381456400,11.788456298828125,-0.012622165685892105,-0.04570142846703529,0.10003975237607955
1681262556391488500,11.798488525390624,-0.01889905399829149,-0.009070026162266731,0.1043733976662159
1681262556401520400,11.808520263671875,-0.039164427913725375,-0.020996318538486956,0.10844108549654483
1681262556411552500,11.818552490234374,-0.03643149581849575,-0.007900836252421141,0.015021628043055534
1681262556421584400,11.82858447265625,-0.018163140939176082,0.12241495805233717,-0.08973696954846382
1681262556431616500,11.838616455078125,-0.03429828318208456,0.057565615392476316,-0.14740180753171442
1681262556441648400,11.8486484375,-0.046157063280045985,-0.006938420961052179,-0.14220306984484196
1681262556451680500,11.858680419921875,-0.03015869915932417,-0.053810646773129696,-0.04787701894044876
1681262556461713700,11.868713623046874,-0.03569996667355299,-0.08552417415902018,0.06078267774283885
1681262556471745500,11.87874560546875,0.001285071374475956,-0.02377455108016729,0.17037994753718375
1681262556481777400,11.88877734375,0.017004618553817272,-0.030553835956752297,0.2163584393799305
1681262556491809300,11.898809326171875,0.0199400874838233,0.006471387971192598,0.22145196312665938
1681262556501841700,11.908841552734375,0.0313902867808938,0.048845133320242165,0.13359832310676573
1681262556511873500,11.91887353515625,0.054744858883321285,0.12067585930004715,0.03720598732233047
1681262556521905400,11.928905517578125,0.04006546840667724,0.31768837769702074,-0.07011223162412643
1681262556531938600,11.9389384765625,0.014626783506572245,0.4003459103785455,-0.06027180561125278
1681262556541970400,11.948970458984375,-0.05616524707525968,0.21422990291863678,0.0671247402459383
1681262556552002300,11.959002197265624,-0.11219108567982912,-0.043349312382936475,0.24079554602205752
1681262556562034400,11.969034423828125,-0.03651858958005905,-0.37536914390176535,0.5301496635079384
1681262556572066600,11.979066650390624,-0.04387216721326113,-0.35278745586797594,0.5613058492720127
1681262556582098400,11.989098388671875,-0.06331891822218895,-0.0704834030240774,0.29962825874090193
1681262556592130300,11.99913037109375,-0.2255006539955735,0.04949804427102208,-0.07569558471441268
1681262556602163500,12.00916357421875,-0.34890783795565367,0.09505129643902183,-0.18610066376030443
1681262556612195600,12.019195556640625,-0.3594353694498539,-0.2986120674356818,1.5666618722230194
1681262556622227500,12.0292275390625,-0.17639292421638963,0.01959229695945978,1.9889561411678789
1681262556632259300,12.03925927734375,-0.3223231978908181,0.1766949759028852,0.3703437169551849
1681262556642291500,12.04929150390625,-0.271912276558578,-0.2315940024346113,0.3828939864486456
1681262556652323600,12.059323486328125,-0.17523966252803802,-0.41656244729459285,0.17343758154213426
1681262556662355500,12.06935546875,-0.1552253407642245,-0.24088395495787263,0.27932021472752094
1681262556672388600,12.079388671875,-0.06959522201269865,-0.18389781995378435,0.3357873673588037
1681262556682420500,12.08942041015625,0.03404664650857448,-0.14157273605205117,0.7355886494666337
1681262556692452400,12.099452392578126,0.02251023023277521,-0.1874308894507587,0.6593517974823713
1681262556702484500,12.109484375,-0.14745850615501402,-0.19261691378653048,0.6629290714472532
1681262556712516600,12.1195166015625,-0.34412469533234835,-0.39069625769741834,0.5208861606001853
1681262556722548500,12.129548583984375,-0.2763207406505942,-0.20782712320424615,0.13217325873970984
1681262556732580400,12.139580322265624,-0.10199614714086055,-0.1281251523926854,-0.06599076777994632
1681262556742612500,12.149612548828125,0.18206600141674278,-0.07059468137882649,0.12660802582800387
1681262556752645400,12.159645263671875,0.36349867336601016,-0.20392277270946652,0.622542700523138
1681262556762677500,12.169677490234376,0.7511272871211171,-0.6897133988026529,1.33323656270802
1681262556772709400,12.17970947265625,1.0367574156478048,-0.905935498451814,1.9486194546043871
1681262556782741500,12.189741455078124,0.812225022162497,-0.6721453742124139,2.0040765534102913
1681262556792773400,12.1997734375,0.4435398860692978,-0.1408444217775017,1.968804749020934
1681262556802805500,12.209805419921874,-0.399976638674736,0.4749547227695584,1.4013959066987036
1681262556812837400,12.21983740234375,-0.7096385079130529,0.7423541250135749,-0.06530979977846145
1681262556822870500,12.22987060546875,-0.4844584641739726,0.5739449660927057,-2.193762089920044
1681262556832902400,12.23990234375,-0.04273585665971041,0.5660976135931909,-4.567719418948888
1681262556842934300,12.249934326171875,0.15213497353345154,0.9462385750066489,-5.7556146137863395
1681262556852966700,12.259966552734374,0.07556786668151616,1.2403884754016994,-4.851124857163429
1681262556862998500,12.26999853515625,0.10263269147872925,0.8333254586625843,-1.769081218099594
1681262556873030400,12.280030517578124,0.10135726471543312,0.2963695492058992,0.06605623423159122
1681262556883062300,12.290062255859375,0.0762891666933894,0.3849378403011709,0.2843535327196121
1681262556893095400,12.300095458984375,0.13746639671176672,0.4270571724977344,0.34813480775654315
1681262556903127600,12.31012744140625,0.0900643018066883,0.2913420033674687,0.2742576706409454
1681262556913159400,12.320159423828125,-0.09573357961475848,0.0324393574424088,0.21177987941801546
1681262556923191600,12.330191650390624,-0.06623188305944204,-0.2847305493384599,0.21232874547243116
1681262556933223400,12.340223388671875,0.5694549611970782,-0.9325664618764072,0.7202554712563752
1681262556943255600,12.350255615234374,0.19387977332919834,-0.6107677262511104,0.36185061389803885
1681262556953287400,12.360287353515625,-0.3533475739687681,-0.27719343183189626,-0.01993921070098877
