time,seconds_elapsed,z,y,x
1681262544604983800,0.01198388671875,-0.1163482666015625,-0.12164306640625,-0.9305877685546875
1681262544615015700,0.022015625,-0.144134521484375,-0.104827880859375,-0.88555908203125
1681262544625048800,0.032048828125,-0.1678924560546875,-0.0963897705078125,-0.8565826416015625
1681262544635080700,0.042080810546875,-0.1864471435546875,-0.10723876953125,-0.86590576171875
1681262544645112800,0.05211279296875,-0.1968536376953125,-0.1064453125,-0.907745361328125
1681262544655145000,0.06214501953125,-0.2043914794921875,-0.1013336181640625,-0.960906982421875
1681262544665176800,0.0721767578125,-0.2102813720703125,-0.0909576416015625,-0.99298095703125
1681262544675208700,0.082208740234375,-0.2183990478515625,-0.06939697265625,-0.9727935791015625
1681262544685241600,0.09224169921875,-0.23919677734375,-0.0389862060546875,-0.9275360107421875
1681262544695274000,0.10227392578125,-0.287933349609375,-0.009521484375,-0.8923492431640625
1681262544705305900,0.112305908203125,-0.317169189453125,0.01470947265625,-0.870452880859375
1681262544715337700,0.122337646484375,-0.285430908203125,0.072021484375,-0.836181640625
1681262544725369900,0.132369873046875,-0.2682952880859375,-0.0048370361328125,-0.85137939453125
1681262544735402000,0.142402099609375,-0.2627410888671875,-0.07733154296875,-0.8893585205078125
1681262544745433900,0.152433837890625,-0.25762939453125,-0.0408782958984375,-0.9648590087890625
1681262544755466800,0.162466796875,-0.249725341796875,0.0326080322265625,-1.0196990966796875
1681262544765499000,0.172498779296875,-0.257354736328125,0.0504302978515625,-1.0104522705078125
1681262544775530800,0.18253076171875,-0.290283203125,0.02642822265625,-0.9704437255859375
1681262544785563000,0.19256298828125,-0.3079986572265625,0.0365753173828125,-0.92919921875
1681262544795595000,0.202594970703125,-0.3001861572265625,0.028076171875,-0.9163970947265625
1681262544805627000,0.212626953125,-0.2965087890625,-0.012054443359375,-0.960906982421875
1681262544815658800,0.22265869140625,-0.2796173095703125,-0.042633056640625,-1.042449951171875
1681262544825691600,0.232691650390625,-0.2245635986328125,-0.0285491943359375,-1.1040191650390625
1681262544835723800,0.242723876953125,-0.1399078369140625,-0.0193634033203125,-1.07196044921875
1681262544845756000,0.252755859375,-0.060089111328125,-0.020111083984375,-0.938262939453125
1681262544855787800,0.262787841796875,-0.0054473876953125,0.0332183837890625,-0.713958740234375
1681262544865820000,0.27281982421875,-0.0672607421875,0.0567626953125,-0.6042938232421875
1681262544875851800,0.282851806640625,-0.1652679443359375,0.051177978515625,-0.7078094482421875
1681262544885884000,0.2928837890625,-0.1714935302734375,0.0009613037109375,-0.9222412109375
1681262544895916800,0.302916748046875,-0.0942230224609375,-0.0415496826171875,-1.0859222412109375
1681262544905949000,0.312948974609375,0.08203125,-0.0351715087890625,-1.2042236328125
1681262544915980800,0.322980712890625,0.2567901611328125,-0.008209228515625,-1.2423248291015625
1681262544926012700,0.3330126953125,0.28521728515625,0.03228759765625,-1.1387786865234375
1681262544936044800,0.343044921875,0.2621002197265625,0.0711822509765625,-1.033782958984375
1681262544946077000,0.353076904296875,0.2141571044921875,0.0809173583984375,-0.93316650390625
1681262544956108800,0.36310888671875,0.1716461181640625,0.0928192138671875,-0.89532470703125
1681262544966141700,0.3731416015625,0.1757049560546875,0.0814666748046875,-0.925079345703125
1681262544976173800,0.383173828125,0.2289581298828125,0.09234619140625,-0.9612579345703125
1681262544986205700,0.393205810546875,0.35205078125,0.0769500732421875,-1.0299835205078125
1681262544996237800,0.40323779296875,0.505615234375,0.0341033935546875,-1.0897369384765625
1681262545006269700,0.413269775390625,0.5883941650390625,0.015350341796875,-1.084686279296875
1681262545016301800,0.4233017578125,0.615509033203125,0.01739501953125,-1.054229736328125
1681262545026333700,0.433333740234375,0.5699005126953125,0.020965576171875,-0.9869232177734375
1681262545036366600,0.44336669921875,0.3154144287109375,0.0322723388671875,-0.922760009765625
1681262545046399000,0.45339892578125,0.1905975341796875,0.04974365234375,-0.947418212890625
1681262545056430800,0.463430908203125,0.177886962890625,0.04034423828125,-1.007843017578125
1681262545066462700,0.473462646484375,0.2538909912109375,0.034332275390625,-1.0095977783203125
1681262545076494600,0.48349462890625,0.45556640625,0.0360107421875,-1.0293731689453125
1681262545086527000,0.49352685546875,0.7690887451171875,0.0269775390625,-1.059539794921875
1681262545096558800,0.503558837890625,0.82916259765625,0.0429840087890625,-0.9989471435546875
1681262545106591700,0.513591796875,0.670867919921875,0.1134490966796875,-0.9182281494140625
1681262545116624000,0.523623779296875,0.55487060546875,0.1945037841796875,-0.84063720703125
1681262545126655700,0.53365576171875,0.4925689697265625,0.220428466796875,-0.80413818359375
1681262545136687900,0.54368798828125,0.449859619140625,0.2153778076171875,-0.8105010986328125
1681262545146719700,0.5537197265625,0.46929931640625,0.1989898681640625,-0.826141357421875
1681262545156752000,0.563751953125,0.53082275390625,0.17755126953125,-0.8342437744140625
1681262545166784800,0.57378466796875,0.58062744140625,0.152130126953125,-0.8233489990234375
1681262545176816000,0.583816162109375,0.6054840087890625,0.1080474853515625,-0.8033599853515625
1681262545186848300,0.59384814453125,0.6189727783203125,0.05548095703125,-0.807403564453125
1681262545196880400,0.60388037109375,0.62786865234375,0.0166473388671875,-0.8236083984375
1681262545206912300,0.613912353515625,0.625579833984375,-0.0025482177734375,-0.807373046875
1681262545216944000,0.623944091796875,0.6081695556640625,-0.0089111328125,-0.8207855224609375
1681262545226976300,0.633976318359375,0.589599609375,0.0279541015625,-0.8414459228515625
1681262545237009400,0.644009521484375,0.561767578125,0.081329345703125,-0.8132476806640625
1681262545247041300,0.654041259765625,0.4973297119140625,0.116973876953125,-0.763824462890625
1681262545257073200,0.6640732421875,0.43450927734375,0.1435546875,-0.70672607421875
1681262545267105300,0.674105224609375,0.4550628662109375,0.17108154296875,-0.6582794189453125
1681262545277137200,0.68413720703125,0.5590362548828125,0.2085723876953125,-0.65087890625
1681262545287169300,0.694169189453125,0.65692138671875,0.2177886962890625,-0.717041015625
1681262545297201200,0.704201171875,0.7046661376953125,0.216766357421875,-0.807647705078125
1681262545307234300,0.714234375,0.6544647216796875,0.2032470703125,-0.935333251953125
1681262545317266200,0.72426611328125,0.5223388671875,0.182586669921875,-1.0525054931640625
1681262545327298000,0.734298095703125,0.299530029296875,0.1501922607421875,-1.0924224853515625
1681262545337330400,0.744330322265625,0.139068603515625,0.1705322265625,-1.0769195556640625
1681262545347362300,0.7543623046875,0.1652984619140625,0.2097015380859375,-1.0762786865234375
1681262545357394200,0.764394287109375,0.270843505859375,0.211334228515625,-1.04962158203125
1681262545367426000,0.774426025390625,0.3527069091796875,0.1892242431640625,-1.0298309326171875
1681262545377459200,0.784459228515625,0.4017333984375,0.1598968505859375,-1.05389404296875
1681262545387491300,0.7944912109375,0.3646240234375,0.1222076416015625,-1.06304931640625
1681262545397523200,0.804523193359375,0.2745361328125,0.0863494873046875,-1.0562591552734375
1681262545407555300,0.814555419921875,0.1612548828125,0.0948944091796875,-1.0132293701171875
1681262545417587200,0.824587158203125,0.0708465576171875,0.1184844970703125,-0.971710205078125
1681262545427619300,0.834619384765625,0.0143890380859375,0.0920562744140625,-0.969390869140625
1681262545437652200,0.84465234375,-0.007476806640625,0.0937957763671875,-0.97808837890625
1681262545447684400,0.854684326171875,-0.037353515625,0.09844970703125,-1.0053863525390625
1681262545457716200,0.86471630859375,-0.036712646484375,0.07501220703125,-1.0367584228515625
1681262545467748000,0.874748046875,0.00390625,0.0463409423828125,-1.0685882568359375
1681262545477780200,0.8847802734375,0.0482177734375,0.0289459228515625,-1.090667724609375
1681262545487812400,0.894812255859375,0.0946502685546875,0.009246826171875,-1.0721282958984375
1681262545497844200,0.90484423828125,0.091949462890625,0.0258636474609375,-1.0123138427734375
1681262545507877400,0.91487744140625,0.0521240234375,0.060791015625,-0.9626312255859375
1681262545517909200,0.9249091796875,0.02197265625,0.0882415771484375,-0.9415740966796875
1681262545527941000,0.934941162109375,-0.0199127197265625,0.099365234375,-0.9381256103515625
1681262545537973200,0.94497314453125,-0.0961151123046875,0.1001739501953125,-0.9499969482421875
1681262545548005400,0.95500537109375,-0.17022705078125,0.0885162353515625,-0.96917724609375
1681262545558037200,0.965037353515625,-0.1734619140625,0.0895538330078125,-0.96221923828125
1681262545568070100,0.975070068359375,-0.1474456787109375,0.0958099365234375,-0.9478759765625
1681262545578102300,0.985102294921875,-0.1192474365234375,0.1000823974609375,-0.929534912109375
1681262545588134400,0.995134521484375,-0.08465576171875,0.0961151123046875,-0.9173583984375
1681262545598166300,1.005166259765625,-0.0453643798828125,0.0996856689453125,-0.90045166015625
1681262545608198100,1.0151982421875,-0.0419921875,0.106170654296875,-0.8898468017578125
1681262545618230300,1.025230224609375,-0.0508575439453125,0.10833740234375,-0.891754150390625
1681262545628262400,1.035262451171875,-0.0473785400390625,0.100555419921875,-0.906524658203125
1681262545638295300,1.04529541015625,-0.0429840087890625,0.1002960205078125,-0.931060791015625
1681262545648327400,1.055327392578125,-0.0778961181640625,0.0955352783203125,-0.9523162841796875
1681262545658359300,1.065359375,-0.1293487548828125,0.098358154296875,-0.9715576171875
1681262545668391200,1.07539111328125,-0.163177490234375,0.096038818359375,-0.9791259765625
1681262545678423000,1.085423095703125,-0.1786041259765625,0.08209228515625,-0.978546142578125
1681262545688455400,1.095455322265625,-0.1787872314453125,0.0737762451171875,-0.9598236083984375
1681262545698488300,1.10548828125,-0.1712493896484375,0.0714111328125,-0.950103759765625
1681262545708520200,1.115520263671875,-0.150421142578125,0.0699310302734375,-0.9410858154296875
1681262545718552300,1.12555224609375,-0.1002655029296875,0.0667877197265625,-0.923858642578125
1681262545728584200,1.135584228515625,-0.0426177978515625,0.054168701171875,-0.925140380859375
1681262545738616300,1.1456162109375,-0.0247802734375,0.05487060546875,-0.9441375732421875
1681262545748648200,1.155648193359375,-0.0492706298828125,0.060089111328125,-0.985748291015625
1681262545758681300,1.165681396484375,-0.081024169921875,0.0724945068359375,-1.0052947998046875
1681262545768713200,1.175713134765625,-0.1130828857421875,0.084259033203125,-1.012481689453125
1681262545778745000,1.1857451171875,-0.1286468505859375,0.09515380859375,-1.019439697265625
1681262545788777500,1.195777587890625,-0.1237640380859375,0.104522705078125,-1.01275634765625
1681262545798809300,1.205809326171875,-0.1214599609375,0.110809326171875,-1.0063323974609375
1681262545808841200,1.21584130859375,-0.119476318359375,0.1191253662109375,-0.996490478515625
1681262545818873000,1.225873046875,-0.1236114501953125,0.1312408447265625,-0.97833251953125
1681262545828906200,1.23590625,-0.1444091796875,0.1364288330078125,-0.953338623046875
1681262545838938000,1.245938232421875,-0.16583251953125,0.139556884765625,-0.929931640625
1681262545848970200,1.25597021484375,-0.1819000244140625,0.131988525390625,-0.9266510009765625
1681262545859002400,1.26600244140625,-0.175079345703125,0.1293182373046875,-0.9442291259765625
1681262545869034200,1.2760341796875,-0.16424560546875,0.1209716796875,-0.95745849609375
1681262545879066000,1.286066162109375,-0.14825439453125,0.1070709228515625,-0.9656982421875
1681262545889099300,1.296099365234375,-0.1205902099609375,0.093536376953125,-0.97576904296875
1681262545899131400,1.30613134765625,-0.116455078125,0.079620361328125,-0.9914398193359375
1681262545909163300,1.316163330078125,-0.1185455322265625,0.0745849609375,-1.003814697265625
1681262545919195100,1.326195068359375,-0.1201629638671875,0.067291259765625,-1.018157958984375
1681262545929227300,1.336227294921875,-0.1291351318359375,0.05853271484375,-1.0323638916015625
1681262545939259400,1.34625927734375,-0.1449737548828125,0.0673675537109375,-1.0340118408203125
1681262545949292300,1.356292236328125,-0.158782958984375,0.076171875,-1.0211181640625
1681262545959324400,1.366324462890625,-0.1670684814453125,0.0763702392578125,-1.0131683349609375
1681262545969356300,1.376356201171875,-0.1504974365234375,0.0790863037109375,-1.0033111572265625
1681262545979388200,1.38638818359375,-0.1450042724609375,0.0868072509765625,-0.9827728271484375
1681262545989420300,1.396420166015625,-0.142059326171875,0.0885162353515625,-0.976348876953125
1681262545999452400,1.406452392578125,-0.1269378662109375,0.0788726806640625,-0.999603271484375
1681262546009484300,1.416484375,-0.1043548583984375,0.0759735107421875,-1.0217437744140625
1681262546019517200,1.42651708984375,-0.1023101806640625,0.0763397216796875,-1.03466796875
1681262546029549300,1.43654931640625,-0.1095733642578125,0.0812835693359375,-1.022003173828125
1681262546039581200,1.446581298828125,-0.1156768798828125,0.0974578857421875,-0.9897918701171875
1681262546049613300,1.45661328125,-0.124908447265625,0.118072509765625,-0.9578399658203125
1681262546059645200,1.466645263671875,-0.1341400146484375,0.1213836669921875,-0.9438018798828125
1681262546069677300,1.47667724609375,-0.12933349609375,0.1128692626953125,-0.9559326171875
1681262546079710200,1.486710205078125,-0.119232177734375,0.1075439453125,-0.97454833984375
1681262546089742000,1.4967421875,-0.11407470703125,0.0923309326171875,-1.0009307861328125
1681262546099774500,1.5067744140625,-0.088714599609375,0.085418701171875,-1.020172119140625
1681262546109806300,1.516806396484375,-0.0711517333984375,0.08551025390625,-1.0240020751953125
1681262546119838200,1.526838134765625,-0.0699920654296875,0.08795166015625,-1.0029754638671875
1681262546129870000,1.5368701171875,-0.0831298828125,0.098236083984375,-0.9735260009765625
1681262546139903200,1.5469033203125,-0.1028594970703125,0.10906982421875,-0.9573211669921875
1681262546149935400,1.556935302734375,-0.1277618408203125,0.1100006103515625,-0.9521942138671875
1681262546159967200,1.56696728515625,-0.1347808837890625,0.1113128662109375,-0.9615631103515625
1681262546169999400,1.576999267578125,-0.1265411376953125,0.112579345703125,-0.97314453125
1681262546180031500,1.587031494140625,-0.1101226806640625,0.110504150390625,-0.972900390625
1681262546190063400,1.5970634765625,-0.097503662109375,0.1055755615234375,-0.9703826904296875
1681262546200095500,1.607095458984375,-0.0909881591796875,0.1123809814453125,-0.9622650146484375
1681262546210128600,1.617128662109375,-0.090789794921875,0.119293212890625,-0.946563720703125
1681262546220160500,1.627160400390625,-0.0918426513671875,0.1248321533203125,-0.922149658203125
1681262546230192400,1.6371923828125,-0.0787200927734375,0.1381072998046875,-0.8749847412109375
1681262546240224300,1.647224365234375,-0.07611083984375,0.1595458984375,-0.81085205078125
1681262546250256600,1.657256591796875,-0.093963623046875,0.209808349609375,-0.7217864990234375
1681262546260288500,1.66728857421875,-0.11907958984375,0.3097381591796875,-0.578948974609375
1681262546270321400,1.6773212890625,-0.1162109375,0.36572265625,-0.466064453125
1681262546280353500,1.687353515625,-0.060394287109375,0.4069061279296875,-0.4442596435546875
1681262546290385400,1.697385498046875,0.0093536376953125,0.4746246337890625,-0.4235382080078125
1681262546300417500,1.70741748046875,0.10858154296875,0.4701690673828125,-0.41265869140625
1681262546310449400,1.717449462890625,0.2350006103515625,0.39129638671875,-0.5757598876953125
1681262546320481500,1.7274814453125,0.3669281005859375,0.290496826171875,-0.8687591552734375
1681262546330513400,1.737513427734375,0.519561767578125,0.25360107421875,-1.0860443115234375
1681262546340546300,1.74754638671875,0.56903076171875,0.2382354736328125,-1.1951751708984375
1681262546350578400,1.757578369140625,0.5185699462890625,0.1958160400390625,-1.2414703369140625
1681262546360610600,1.767610595703125,0.4506072998046875,0.1703948974609375,-1.2504730224609375
1681262546370642400,1.777642333984375,0.4129791259765625,0.1427154541015625,-1.2879486083984375
1681262546380674300,1.78767431640625,0.3987579345703125,0.093902587890625,-1.30535888671875
1681262546390706400,1.79770654296875,0.4408111572265625,0.0467529296875,-1.2809295654296875
1681262546400739300,1.8077392578125,0.619598388671875,0.0035552978515625,-1.344879150390625
1681262546410771500,1.817771484375,0.7111053466796875,-0.08074951171875,-1.35382080078125
1681262546420803600,1.827803466796875,0.8363800048828125,-0.090423583984375,-1.2636260986328125
1681262546430835500,1.83783544921875,0.91796875,-0.0160980224609375,-1.155792236328125
1681262546440867300,1.847867431640625,0.9400177001953125,0.0174713134765625,-1.0824737548828125
1681262546450899500,1.8578994140625,0.8193817138671875,0.049346923828125,-1.03900146484375
1681262546460931600,1.867931640625,0.6563262939453125,0.0958099365234375,-1.040008544921875
1681262546470964500,1.877964599609375,0.5849456787109375,0.104736328125,-1.025482177734375
1681262546480996400,1.887996337890625,0.6258087158203125,0.102294921875,-0.97601318359375
1681262546491028500,1.898028564453125,0.7590789794921875,0.1439361572265625,-0.905242919921875
1681262546501060600,1.908060546875,0.906951904296875,0.2426605224609375,-0.7759552001953125
1681262546511092500,1.918092529296875,1.077972412109375,0.3781280517578125,-0.574188232421875
1681262546521124400,1.928124267578125,1.0308685302734375,0.401458740234375,-0.4757843017578125
1681262546531157500,1.938157470703125,0.9197845458984375,0.3589630126953125,-0.5011444091796875
1681262546541189400,1.948189453125,0.90399169921875,0.3009185791015625,-0.5788116455078125
1681262546551221200,1.95822119140625,0.7935943603515625,0.21478271484375,-0.638763427734375
1681262546561253600,1.968253662109375,0.6234283447265625,0.1730804443359375,-0.62457275390625
1681262546571285500,1.978285400390625,0.5152435302734375,0.1135101318359375,-0.586029052734375
1681262546581317400,1.9883173828125,0.444244384765625,0.0396575927734375,-0.5458831787109375
1681262546591349200,1.998349365234375,0.5008697509765625,0.0039215087890625,-0.509033203125
1681262546601382400,2.00838232421875,0.6311492919921875,0.0421295166015625,-0.47662353515625
1681262546611414500,2.01841455078125,0.8581390380859375,0.033050537109375,-0.4907684326171875
1681262546621446400,2.0284462890625,0.9810943603515625,-0.0023193359375,-0.6081695556640625
1681262546631478500,2.038478515625,0.9752349853515625,-0.0008544921875,-0.71331787109375
1681262546641510400,2.048510498046875,0.8184814453125,-0.0703277587890625,-0.774444580078125
1681262546651542500,2.05854248046875,0.631317138671875,-0.1190185546875,-0.8030548095703125
1681262546661574400,2.068574462890625,0.4539794921875,-0.111236572265625,-0.7146759033203125
1681262546671607600,2.078607666015625,0.481903076171875,-0.1375579833984375,-0.56866455078125
1681262546681639400,2.088639404296875,0.587158203125,-0.0868377685546875,-0.4615631103515625
1681262546691671300,2.09867138671875,0.7150421142578125,-0.0249786376953125,-0.3813018798828125
1681262546701703400,2.108703369140625,0.9278564453125,-0.171112060546875,-0.5057373046875
1681262546711735600,2.118735595703125,0.8365936279296875,-0.1775360107421875,-0.5324859619140625
1681262546721767400,2.128767333984375,0.88641357421875,0.0635223388671875,-0.4078826904296875
1681262546731800600,2.138800537109375,0.9758453369140625,0.02197265625,-0.2975311279296875
1681262546741832400,2.14883251953125,0.940643310546875,0.088531494140625,-0.2230987548828125
1681262546751864300,2.1588642578125,0.8752288818359375,0.0460662841796875,-0.227752685546875
1681262546761896400,2.168896484375,0.7864837646484375,0.0231781005859375,-0.191680908203125
1681262546771928600,2.178928466796875,0.8850250244140625,0.038238525390625,-0.1380615234375
1681262546781960400,2.18896044921875,0.873870849609375,0.11932373046875,-0.102630615234375
1681262546791992300,2.198992431640625,0.7171173095703125,0.2237548828125,-0.0779266357421875
1681262546802025200,2.209025146484375,0.641876220703125,0.22589111328125,-0.010711669921875
1681262546812057600,2.2190576171875,0.5534515380859375,0.271942138671875,-0.0972747802734375
1681262546822089500,2.22908935546875,0.457977294921875,0.240234375,-0.302215576171875
1681262546832121300,2.239121337890625,0.673553466796875,0.2272491455078125,-0.3798675537109375
1681262546842153500,2.249153564453125,0.716705322265625,0.2558441162109375,-0.424713134765625
1681262546852185600,2.259185546875,0.6356201171875,0.1289520263671875,-0.932525634765625
1681262546862217500,2.269217529296875,0.9200286865234375,-0.16375732421875,-1.153167724609375
1681262546872250400,2.27925048828125,0.947998046875,-0.2408447265625,-1.1727142333984375
1681262546882282500,2.289282470703125,1.0308074951171875,-0.104400634765625,-1.1649322509765625
1681262546892314400,2.299314453125,0.8989715576171875,-0.0648345947265625,-0.8170166015625
1681262546902346500,2.309346435546875,0.7577972412109375,-0.0350494384765625,-0.726776123046875
1681262546912378600,2.319378662109375,0.795989990234375,0.148956298828125,-0.746429443359375
1681262546922410500,2.329410400390625,0.7699737548828125,0.1276397705078125,-0.666412353515625
1681262546932442400,2.3394423828125,0.7985992431640625,0.052093505859375,-0.7179718017578125
1681262546942475300,2.349475341796875,0.8551483154296875,0.0634765625,-0.707489013671875
1681262546952507400,2.35950732421875,0.8956756591796875,0.1080322265625,-0.7238922119140625
1681262546962539500,2.36953955078125,0.919952392578125,0.104949951171875,-0.7844696044921875
1681262546972571400,2.3795712890625,0.915283203125,0.08087158203125,-0.839324951171875
1681262546982603500,2.389603515625,0.9035186767578125,0.092315673828125,-0.75714111328125
1681262546992635400,2.399635498046875,0.90765380859375,0.086181640625,-0.7389678955078125
1681262547002668300,2.409668212890625,0.8483734130859375,0.1066741943359375,-0.7970733642578125
1681262547012700400,2.419700439453125,0.8073883056640625,0.0246734619140625,-0.7523651123046875
1681262547022732500,2.429732666015625,0.7954559326171875,-0.0284271240234375,-0.7857818603515625
1681262547032764400,2.439764404296875,0.785400390625,-0.0896759033203125,-0.7612457275390625
1681262547042796300,2.44979638671875,0.774261474609375,-0.1387176513671875,-0.829010009765625
1681262547052828700,2.45982861328125,0.8056182861328125,-0.1472625732421875,-0.8857574462890625
1681262547062860500,2.469860595703125,0.72735595703125,-0.1952972412109375,-0.8509368896484375
1681262547072893400,2.4798935546875,0.6185760498046875,-0.31268310546875,-0.6971893310546875
1681262547082925300,2.48992529296875,0.6375274658203125,-0.3201904296875,-0.6429595947265625
1681262547092957400,2.49995751953125,0.7215118408203125,-0.23162841796875,-0.566802978515625
1681262547102989300,2.5099892578125,0.8017425537109375,-0.127105712890625,-0.439453125
1681262547113021400,2.520021484375,0.77069091796875,-0.06585693359375,-0.4191131591796875
1681262547123053600,2.530053466796875,0.756378173828125,-0.0610504150390625,-0.464935302734375
1681262547133085400,2.54008544921875,0.764801025390625,-0.0836334228515625,-0.5330657958984375
1681262547143118300,2.550118408203125,0.8065032958984375,-0.10931396484375,-0.6002655029296875
1681262547153150200,2.560150146484375,0.8351593017578125,-0.140228271484375,-0.6611328125
1681262547163182600,2.5701826171875,0.7834625244140625,-0.16082763671875,-0.6854095458984375
1681262547173214700,2.580214599609375,0.7512664794921875,-0.1702117919921875,-0.6084136962890625
1681262547183246800,2.590246826171875,0.7367401123046875,-0.1569976806640625,-0.504486083984375
1681262547193278700,2.60027880859375,0.7012786865234375,-0.1296844482421875,-0.4303131103515625
1681262547203310800,2.610310791015625,0.678741455078125,-0.1111907958984375,-0.448394775390625
1681262547213343700,2.62034375,0.67327880859375,-0.094818115234375,-0.5842742919921875
1681262547223376000,2.6303759765625,0.6572418212890625,-0.0552520751953125,-0.6967620849609375
1681262547233407700,2.64040771484375,0.6938018798828125,-0.025177001953125,-0.6895751953125
1681262547243439600,2.650439697265625,0.7190093994140625,-0.0213775634765625,-0.7119598388671875
1681262547253471700,2.6604716796875,0.7260284423828125,-0.01641845703125,-0.710296630859375
1681262547263504000,2.67050390625,0.760955810546875,-0.024017333984375,-0.662811279296875
1681262547273535700,2.68053564453125,0.761871337890625,-0.0346221923828125,-0.6697998046875
1681262547283569000,2.69056884765625,0.74578857421875,-0.0255584716796875,-0.66510009765625
1681262547293600800,2.700600830078125,0.7273712158203125,0.011505126953125,-0.64080810546875
1681262547303632600,2.710632568359375,0.6998291015625,0.0151824951171875,-0.582550048828125
1681262547313664800,2.720664794921875,0.7120208740234375,0.0040740966796875,-0.5497589111328125
1681262547323697000,2.73069677734375,0.7625579833984375,-0.0161895751953125,-0.59710693359375
1681262547333728800,2.740728759765625,0.821319580078125,-0.0377655029296875,-0.6701812744140625
1681262547343760600,2.7507607421875,0.8936920166015625,-0.039947509765625,-0.6835174560546875
1681262547353793800,2.760793701171875,0.9288330078125,-0.025360107421875,-0.6623077392578125
1681262547363826000,2.770825927734375,0.888641357421875,-0.0113677978515625,-0.6471405029296875
1681262547373857800,2.78085791015625,0.8946685791015625,0.058258056640625,-0.633941650390625
1681262547383889700,2.7908896484375,0.767578125,0.0728912353515625,-0.592620849609375
1681262547393921800,2.800921875,0.7111663818359375,0.0239715576171875,-0.4542236328125
1681262547403953700,2.81095361328125,0.795318603515625,-0.0306396484375,-0.3687744140625
1681262547413985800,2.82098583984375,0.9048614501953125,-0.148529052734375,-0.3174285888671875
1681262547424019000,2.83101904296875,0.776214599609375,-0.0992431640625,-0.3296356201171875
1681262547434050800,2.84105078125,0.6898651123046875,-0.05499267578125,-0.4601287841796875
1681262547444082700,2.851082763671875,0.9470977783203125,-0.1574249267578125,-0.7179412841796875
1681262547454114600,2.861114501953125,0.9803009033203125,-0.13079833984375,-0.7849578857421875
1681262547464147000,2.87114697265625,0.9187774658203125,-0.0792694091796875,-0.70068359375
1681262547474178800,2.8811787109375,0.8486328125,-0.084625244140625,-0.6353912353515625
1681262547484210700,2.891210693359375,0.7894744873046875,-0.1094512939453125,-0.5532073974609375
1681262547494243800,2.901243896484375,0.775909423828125,-0.1300811767578125,-0.4399261474609375
1681262547504275700,2.911275634765625,0.7589263916015625,-0.11029052734375,-0.3990478515625
1681262547514307800,2.921307861328125,0.7526702880859375,-0.0972442626953125,-0.4955596923828125
1681262547524339700,2.931339599609375,0.664459228515625,-0.07830810546875,-0.63128662109375
1681262547534371800,2.941371826171875,0.5897369384765625,-0.0205078125,-0.8533172607421875
1681262547544403700,2.95140380859375,0.633758544921875,-0.0460662841796875,-1.030059814453125
1681262547554435800,2.961435791015625,0.6056976318359375,-0.0732879638671875,-1.1209564208984375
1681262547564468700,2.97146875,0.7469940185546875,-0.0875244140625,-0.9155120849609375
1681262547574500900,2.9815009765625,0.8035125732421875,-0.136474609375,-0.7244873046875
1681262547584532700,2.99153271484375,0.7042388916015625,-0.1706390380859375,-0.71771240234375
1681262547594564600,3.001564697265625,0.6944427490234375,-0.0684051513671875,-0.7093658447265625
1681262547604596700,3.0115966796875,0.6660003662109375,0.0404205322265625,-0.702484130859375
1681262547614628900,3.02162890625,0.6278839111328125,0.0693206787109375,-0.666351318359375
1681262547624660700,3.03166064453125,0.6181640625,0.0832366943359375,-0.6286163330078125
1681262547634694000,3.04169384765625,0.6082000732421875,0.0745391845703125,-0.649993896484375
1681262547644725800,3.051725830078125,0.59710693359375,0.064605712890625,-0.6820831298828125
1681262547654757600,3.061757568359375,0.6273651123046875,-0.0006561279296875,-0.647369384765625
1681262547664789800,3.071789794921875,0.6471710205078125,-0.0499725341796875,-0.6453399658203125
1681262547674822000,3.08182177734375,0.617523193359375,-0.1090087890625,-0.7144622802734375
1681262547684853800,3.091853759765625,0.6403656005859375,-0.1364288330078125,-0.7313079833984375
1681262547694885600,3.1018857421875,0.667755126953125,-0.128448486328125,-0.7742767333984375
1681262547704917800,3.111917724609375,0.5937042236328125,-0.1074981689453125,-0.8276214599609375
1681262547714951000,3.121950927734375,0.6527252197265625,-0.088836669921875,-0.800994873046875
1681262547724982800,3.131982666015625,0.74359130859375,-0.055755615234375,-0.771881103515625
1681262547735014700,3.1420146484375,0.7622528076171875,-0.0506439208984375,-0.743408203125
1681262547745046800,3.152046875,0.738494873046875,-0.0382537841796875,-0.6521148681640625
1681262547755079000,3.162078857421875,0.7335052490234375,-0.0294342041015625,-0.573944091796875
1681262547765110800,3.17211083984375,0.7031097412109375,-0.0318145751953125,-0.5571136474609375
1681262547775142700,3.182142578125,0.654632568359375,-0.0597686767578125,-0.5776824951171875
1681262547785175800,3.19217578125,0.6894378662109375,-0.09130859375,-0.5998382568359375
1681262547795207700,3.202207763671875,0.7473602294921875,-0.124786376953125,-0.6239013671875
1681262547805239600,3.212239501953125,0.7812347412109375,-0.1625213623046875,-0.6684722900390625
1681262547815272000,3.22227197265625,0.807891845703125,-0.19146728515625,-0.7249298095703125
1681262547825303800,3.2323037109375,0.833160400390625,-0.18524169921875,-0.7788238525390625
1681262547835335700,3.242335693359375,0.7305145263671875,-0.132568359375,-0.7946624755859375
1681262547845367600,3.252367431640625,0.304656982421875,-0.0867767333984375,-0.802337646484375
1681262547855400700,3.262400634765625,0.47003173828125,-0.1021270751953125,-0.7772369384765625
1681262547865432800,3.272432861328125,0.6739349365234375,-0.176605224609375,-0.6693878173828125
1681262547875464700,3.282464599609375,0.9548797607421875,-0.087615966796875,-0.638153076171875
1681262547885496800,3.292496826171875,1.014373779296875,-0.036041259765625,-0.6204833984375
1681262547895528700,3.30252880859375,0.8368682861328125,-0.02325439453125,-0.6590423583984375
1681262547905560800,3.312560791015625,0.6361846923828125,0.0193634033203125,-0.687469482421875
1681262547915592700,3.3225927734375,0.519256591796875,0.0297088623046875,-0.6841888427734375
1681262547925625900,3.3326259765625,0.5673980712890625,0.042816162109375,-0.6843109130859375
1681262547935657700,3.34265771484375,0.6202239990234375,0.0594940185546875,-0.67572021484375
1681262547945689600,3.352689697265625,0.6091766357421875,0.027313232421875,-0.7052459716796875
1681262547955721700,3.3627216796875,0.6432647705078125,-0.0301055908203125,-0.7516326904296875
1681262547965753900,3.37275390625,0.7253875732421875,-0.0976715087890625,-0.7975616455078125
1681262547975785700,3.38278564453125,0.75811767578125,-0.13458251953125,-0.8218841552734375
1681262547985817600,3.392817626953125,0.7373046875,-0.1385955810546875,-0.8221282958984375
1681262547995850800,3.402850830078125,0.71356201171875,-0.1431427001953125,-0.80108642578125
1681262548005882600,3.412882568359375,0.698211669921875,-0.1596221923828125,-0.7899932861328125
1681262548015914800,3.422914794921875,0.6975250244140625,-0.1692352294921875,-0.8095550537109375
1681262548025947000,3.43294677734375,0.671783447265625,-0.153656005859375,-0.790130615234375
1681262548035978800,3.442978759765625,0.6226348876953125,-0.0735015869140625,-0.7224578857421875
1681262548046010600,3.4530107421875,0.6070098876953125,-0.008758544921875,-0.71490478515625
1681262548056042800,3.463042724609375,0.62408447265625,-0.0022735595703125,-0.725067138671875
1681262548066075000,3.473074951171875,0.6260986328125,-0.02178955078125,-0.736663818359375
1681262548076107800,3.483107666015625,0.6638641357421875,-0.0490570068359375,-0.7696990966796875
1681262548086139600,3.4931396484375,0.7343292236328125,-0.058135986328125,-0.8033447265625
1681262548096171800,3.503171875,0.7440185546875,-0.0365753173828125,-0.790313720703125
1681262548106204000,3.513203857421875,0.7139892578125,-0.031951904296875,-0.74163818359375
1681262548116235800,3.52323583984375,0.7107696533203125,-0.06060791015625,-0.6920928955078125
1681262548126267600,3.533267578125,0.74365234375,-0.1783599853515625,-0.6387939453125
1681262548136299800,3.5432998046875,0.6018829345703125,-0.1423187255859375,-0.673858642578125
1681262548146332700,3.553332763671875,0.7428741455078125,-0.0863800048828125,-0.805908203125
1681262548156364800,3.56336474609375,0.73565673828125,-0.1508331298828125,-0.8408203125
1681262548166397000,3.57339697265625,0.6896514892578125,-0.2285919189453125,-0.7606201171875
1681262548176429000,3.583428955078125,0.672760009765625,-0.2933349609375,-0.6820831298828125
1681262548186461000,3.5934609375,0.5899505615234375,-0.2761688232421875,-0.641326904296875
1681262548196492800,3.603492919921875,0.57037353515625,-0.2047271728515625,-0.6318511962890625
1681262548206525000,3.61352490234375,0.628936767578125,-0.1205902099609375,-0.639862060546875
1681262548216557000,3.62355712890625,0.7121124267578125,-0.0695953369140625,-0.632781982421875
1681262548226590000,3.63358984375,0.7025146484375,-0.0456390380859375,-0.6429901123046875
1681262548236621800,3.643621826171875,0.664794921875,0.01983642578125,-0.675567626953125
1681262548246654000,3.653654052734375,0.6971588134765625,0.12445068359375,-0.7468719482421875
1681262548256686000,3.66368603515625,0.6855926513671875,0.1177215576171875,-0.81060791015625
1681262548266718000,3.673718017578125,0.6880645751953125,0.0838470458984375,-0.8220062255859375
1681262548276749800,3.683749755859375,0.6733245849609375,0.081329345703125,-0.792877197265625
1681262548286782000,3.693781982421875,0.65838623046875,0.0612030029296875,-0.7472686767578125
1681262548296814800,3.70381494140625,0.65667724609375,0.0665283203125,-0.71710205078125
1681262548306847000,3.713846923828125,0.6743927001953125,0.0061187744140625,-0.72528076171875
1681262548316879000,3.723879150390625,0.6863861083984375,-0.1378936767578125,-0.7411956787109375
1681262548326911000,3.733910888671875,0.6883697509765625,-0.2673187255859375,-0.714111328125
1681262548336942800,3.74394287109375,0.684783935546875,-0.3658294677734375,-0.6554107666015625
1681262548346975000,3.75397509765625,0.6544952392578125,-0.470458984375,-0.5991973876953125
1681262548357007000,3.764007080078125,0.5954132080078125,-0.59912109375,-0.5380859375
1681262548367039000,3.7740390625,0.6186370849609375,-0.459503173828125,-0.536895751953125
1681262548377071900,3.78407177734375,0.5650787353515625,0.0396575927734375,-0.6268310546875
1681262548387104000,3.79410400390625,0.619293212890625,0.372802734375,-0.7769317626953125
1681262548397136000,3.804135986328125,0.765869140625,0.5141448974609375,-0.985382080078125
1681262548407168000,3.81416796875,0.8627777099609375,0.449127197265625,-0.9681396484375
1681262548417199900,3.824199951171875,0.8217926025390625,0.2310791015625,-0.8510894775390625
1681262548427232000,3.83423193359375,0.7227935791015625,-0.04833984375,-0.7391815185546875
1681262548437264000,3.844263916015625,0.643798828125,-0.165618896484375,-0.6578826904296875
1681262548447296800,3.854296875,0.63067626953125,-0.2047271728515625,-0.5739288330078125
1681262548457329200,3.8643291015625,0.646636962890625,-0.1837615966796875,-0.5686798095703125
1681262548467361000,3.874361083984375,0.6188507080078125,-0.2077178955078125,-0.616058349609375
1681262548477393000,3.884392822265625,0.7862701416015625,-0.2281341552734375,-0.635650634765625
1681262548487424800,3.8944248046875,0.7507476806640625,-0.1718902587890625,-0.597900390625
1681262548497457200,3.90445703125,0.772918701171875,0.0039825439453125,-0.64166259765625
1681262548507489000,3.914489013671875,0.7901153564453125,0.1763458251953125,-0.67718505859375
1681262548517522000,3.92452197265625,0.8420562744140625,0.225799560546875,-0.76422119140625
1681262548527554000,3.934553955078125,0.8591766357421875,0.299285888671875,-0.7858734130859375
1681262548537586000,3.9445859375,0.8180389404296875,0.3700103759765625,-0.6331024169921875
1681262548547617800,3.95461767578125,0.835205078125,0.20953369140625,-0.5283355712890625
1681262548557650000,3.96464990234375,0.7567291259765625,-0.053558349609375,-0.5107879638671875
1681262548567682000,3.97468212890625,0.7585601806640625,-0.0796356201171875,-0.516876220703125
1681262548577714000,3.9847138671875,0.8052978515625,0.0843658447265625,-0.46771240234375
1681262548587745800,3.994745849609375,0.831634521484375,0.1922760009765625,-0.429351806640625
1681262548597779000,4.004779052734375,0.8002471923828125,0.213470458984375,-0.468414306640625
1681262548607811000,4.01481103515625,0.7932586669921875,0.150360107421875,-0.532623291015625
1681262548617843000,4.024843017578125,0.8017425537109375,0.066375732421875,-0.5856781005859375
1681262548627874800,4.034874755859375,0.830718994140625,0.0671844482421875,-0.5840301513671875
1681262548637907000,4.044906982421875,0.84942626953125,0.1123046875,-0.570953369140625
1681262548647939000,4.05493896484375,0.8350677490234375,0.096435546875,-0.5970611572265625
1681262548657971000,4.064970947265625,0.8603973388671875,0.0421905517578125,-0.55621337890625
1681262548668002800,4.0750029296875,0.8632659912109375,0.0873260498046875,-0.4813079833984375
1681262548678036000,4.085035888671875,0.873260498046875,0.18023681640625,-0.472412109375
1681262548688067800,4.09506787109375,0.9018096923828125,-0.01776123046875,-0.4355316162109375
1681262548698100000,4.105099853515625,0.938751220703125,-0.27899169921875,-0.2223052978515625
1681262548708132000,4.115132080078125,1.353515625,-0.8909149169921875,0.0724334716796875
1681262548718164000,4.1251640625,1.4056549072265625,-0.655975341796875,-0.1641998291015625
1681262548728195800,4.13519580078125,0.9256134033203125,0.0248870849609375,-0.2909393310546875
1681262548738228000,4.14522802734375,0.5766448974609375,0.6166534423828125,-0.29681396484375
1681262548748260900,4.1552607421875,0.371826171875,0.8018798828125,-0.5258636474609375
1681262548758293000,4.16529296875,0.59393310546875,0.9193572998046875,-0.70245361328125
1681262548768324900,4.175324951171875,0.7027130126953125,0.8399658203125,-0.72747802734375
1681262548778357000,4.18535693359375,0.653106689453125,0.6029815673828125,-0.761077880859375
1681262548788388900,4.195388916015625,0.6905364990234375,0.4915313720703125,-0.6460723876953125
1681262548798421000,4.2054208984375,0.8618927001953125,0.67669677734375,-0.469512939453125
1681262548808452900,4.215452880859375,0.8693695068359375,0.6787567138671875,-0.3963775634765625
1681262548818485000,4.225485107421875,0.8498077392578125,0.458587646484375,-0.3600006103515625
1681262548828518000,4.235517822265625,0.8428955078125,0.4878082275390625,-0.3374786376953125
1681262548838549800,4.2455498046875,0.8881988525390625,0.391204833984375,-0.3286590576171875
1681262548848582100,4.25558203125,0.908172607421875,0.1587371826171875,-0.25048828125
1681262548858614000,4.265614013671875,0.8661956787109375,0.044097900390625,-0.1481475830078125
1681262548868646000,4.27564599609375,0.73309326171875,0.1439666748046875,-0.132415771484375
1681262548878677800,4.285677734375,0.735137939453125,0.1777801513671875,-0.2476348876953125
1681262548888710100,4.295710205078125,0.8120574951171875,0.158477783203125,-0.414215087890625
1681262548898743000,4.305742919921875,0.8932342529296875,0.131317138671875,-0.4345703125
1681262548908775000,4.31577490234375,0.9772796630859375,0.210601806640625,-0.333984375
1681262548918807000,4.32580712890625,1.0327301025390625,0.2841949462890625,-0.287353515625
1681262548928839000,4.3358388671875,1.0112762451171875,0.345184326171875,-0.252288818359375
1681262548938870800,4.345870849609375,0.9347991943359375,0.4389801025390625,-0.2262725830078125
1681262548948903000,4.35590283203125,0.877899169921875,0.49102783203125,-0.3135986328125
1681262548958935000,4.36593505859375,0.84832763671875,0.479248046875,-0.4098358154296875
1681262548968968000,4.375968017578125,0.8589324951171875,0.4690399169921875,-0.466064453125
1681262548978999800,4.385999755859375,0.87847900390625,0.4392547607421875,-0.4870147705078125
1681262548989032000,4.396031982421875,0.9038543701171875,0.34930419921875,-0.50555419921875
1681262548999064000,4.40606396484375,0.8885650634765625,0.218231201171875,-0.4935150146484375
1681262549009096000,4.416095947265625,0.8468170166015625,0.182373046875,-0.4677581787109375
1681262549019127800,4.4261279296875,0.808868408203125,0.15557861328125,-0.4661712646484375
1681262549029160000,4.436159912109375,0.789764404296875,0.1326904296875,-0.46441650390625
1681262549039192000,4.446192138671875,0.801544189453125,0.13897705078125,-0.4353179931640625
1681262549049225000,4.456224853515625,0.83953857421875,0.0852203369140625,-0.3953704833984375
1681262549059257000,4.466257080078125,0.8548431396484375,0.016082763671875,-0.403167724609375
1681262549069289000,4.4762890625,0.842864990234375,-0.08770751953125,-0.46875
1681262549079320800,4.48632080078125,0.832550048828125,0.1097259521484375,-0.3978271484375
1681262549089353000,4.49635302734375,0.811981201171875,0.2752838134765625,-0.4319000244140625
1681262549099385000,4.506385009765625,0.8056488037109375,0.220428466796875,-0.57086181640625
1681262549109417000,4.5164169921875,0.813568115234375,0.3440399169921875,-0.551177978515625
1681262549119449900,4.526449951171875,0.8431549072265625,0.2742462158203125,-0.634735107421875
1681262549129482000,4.53648193359375,0.812347412109375,0.3521728515625,-0.6385040283203125
1681262549139513900,4.546513916015625,0.7839813232421875,0.36663818359375,-0.6654815673828125
1681262549149546000,4.5565458984375,0.7667694091796875,0.2589111328125,-0.665435791015625
1681262549159577900,4.566577880859375,0.77899169921875,0.3826904296875,-0.5866241455078125
1681262549169610000,4.57660986328125,0.8048858642578125,0.516998291015625,-0.5423431396484375
1681262549179641600,4.5866416015625,0.8209075927734375,0.403564453125,-0.5795440673828125
1681262549189674500,4.596674560546875,0.8379974365234375,0.2638092041015625,-0.6505126953125
1681262549199706400,4.606706298828125,0.8208160400390625,0.2216339111328125,-0.6514129638671875
1681262549209738500,4.616738525390625,0.775115966796875,0.23699951171875,-0.6229400634765625
1681262549219770400,4.626770263671875,0.7355804443359375,0.2321624755859375,-0.6307220458984375
1681262549229802500,4.636802490234375,0.736541748046875,0.1961669921875,-0.6389007568359375
1681262549239834400,4.64683447265625,0.75677490234375,0.2447662353515625,-0.6341400146484375
1681262549249866500,4.656866455078125,0.8093719482421875,0.17340087890625,-0.7101898193359375
1681262549259898400,4.6668984375,0.8062896728515625,0.05230712890625,-0.786651611328125
1681262549269931300,4.67693115234375,0.7781829833984375,0.10760498046875,-0.6658172607421875
1681262549279963400,4.68696337890625,0.757659912109375,0.13958740234375,-0.6593170166015625
1681262549289995500,4.69699560546875,0.7360382080078125,0.119903564453125,-0.62750244140625
1681262549300027400,4.70702734375,0.755767822265625,0.1529693603515625,-0.60198974609375
1681262549310059300,4.717059326171875,0.7519073486328125,0.15106201171875,-0.6806182861328125
1681262549320091400,4.72709130859375,0.77471923828125,0.070648193359375,-0.757659912109375
1681262549330123500,4.73712353515625,0.7603759765625,-0.0340118408203125,-0.620361328125
1681262549340156400,4.747156494140625,0.67919921875,0.0191650390625,-0.5614471435546875
1681262549350188500,4.7571884765625,0.6590423583984375,0.0005340576171875,-0.5386962890625
1681262549360220400,4.767220458984375,0.6733856201171875,0.0461273193359375,-0.5030059814453125
1681262549370252300,4.777252197265625,0.720855712890625,0.005279541015625,-0.564056396484375
1681262549380284400,4.787284423828125,0.7705230712890625,0.155731201171875,-0.5540771484375
1681262549390316500,4.797316650390625,0.7360382080078125,0.1865081787109375,-0.4997406005859375
1681262549400348400,4.807348388671875,0.68072509765625,0.0008697509765625,-0.602630615234375
1681262549410380300,4.81738037109375,0.7270660400390625,-0.0004730224609375,-0.77862548828125
1681262549420413400,4.827413330078125,0.73785400390625,0.272796630859375,-0.7407989501953125
1681262549430445300,4.8374453125,0.7217864990234375,0.225341796875,-0.7720794677734375
1681262549440477400,4.8474775390625,0.7197265625,0.31732177734375,-0.7679595947265625
1681262549450509300,4.85750927734375,0.7273101806640625,0.37457275390625,-0.7407379150390625
1681262549460541400,4.86754150390625,0.7201385498046875,0.23870849609375,-0.7944793701171875
1681262549470573300,4.8775732421875,0.7073211669921875,0.285552978515625,-0.8278656005859375
1681262549480605400,4.88760546875,0.690826416015625,0.2614898681640625,-0.751312255859375
1681262549490638600,4.897638671875,0.689605712890625,0.2361297607421875,-0.7280120849609375
1681262549500670500,4.90767041015625,0.692626953125,0.212249755859375,-0.7246856689453125
1681262549510702300,4.917702392578125,0.69927978515625,0.1940765380859375,-0.7166748046875
1681262549520734200,4.927734130859375,0.6998443603515625,0.1569976806640625,-0.700836181640625
1681262549530766600,4.9377666015625,0.692474365234375,0.1346893310546875,-0.68798828125
1681262549540798500,4.947798583984375,0.688385009765625,0.15057373046875,-0.697967529296875
1681262549550830300,4.957830322265625,0.69384765625,0.1621246337890625,-0.7181854248046875
1681262549560863500,4.967863525390625,0.70135498046875,0.166961669921875,-0.7109375
1681262549570895400,4.977895263671875,0.70770263671875,0.151336669921875,-0.6817779541015625
1681262549580927500,4.987927490234375,0.7093505859375,0.1476593017578125,-0.681732177734375
1681262549590959400,4.99795947265625,0.7102508544921875,0.1636505126953125,-0.687530517578125
1681262549600991500,5.007991455078125,0.7135467529296875,0.1677398681640625,-0.6922149658203125
1681262549611023400,5.0180234375,0.7153167724609375,0.1708221435546875,-0.69061279296875
1681262549621055500,5.028055419921875,0.713775634765625,0.176025390625,-0.6977386474609375
1681262549631088400,5.03808837890625,0.7109375,0.18206787109375,-0.6946563720703125
1681262549641120500,5.04812060546875,0.7039337158203125,0.17626953125,-0.6896820068359375
1681262549651152400,5.05815234375,0.6930999755859375,0.169677734375,-0.684600830078125
1681262549661184300,5.068184326171875,0.687225341796875,0.1618499755859375,-0.6843719482421875
1681262549671216400,5.07821630859375,0.6791534423828125,0.1659088134765625,-0.6966400146484375
1681262549681248500,5.08824853515625,0.6830596923828125,0.16021728515625,-0.6976318359375
1681262549691280400,5.0982802734375,0.6832427978515625,0.1600799560546875,-0.6944122314453125
1681262549701312300,5.108312255859375,0.690673828125,0.1435546875,-0.6928253173828125
1681262549711345400,5.118345458984375,0.6981964111328125,0.141571044921875,-0.6945037841796875
1681262549721377300,5.128377197265625,0.704681396484375,0.1427001953125,-0.6953887939453125
1681262549731409400,5.138409423828125,0.70416259765625,0.1580657958984375,-0.6995849609375
1681262549741441500,5.148441650390625,0.6973724365234375,0.1666259765625,-0.704620361328125
1681262549751473400,5.158473388671875,0.696685791015625,0.17138671875,-0.70123291015625
1681262549761505300,5.16850537109375,0.698699951171875,0.179473876953125,-0.68719482421875
1681262549771537400,5.178537353515625,0.7086334228515625,0.169952392578125,-0.674713134765625
1681262549781570600,5.188570556640625,0.7083740234375,0.169281005859375,-0.676849365234375
1681262549791602400,5.1986025390625,0.70147705078125,0.1648101806640625,-0.682708740234375
1681262549801634300,5.20863427734375,0.7029266357421875,0.168701171875,-0.6871185302734375
1681262549811666400,5.21866650390625,0.7015838623046875,0.1679840087890625,-0.6960601806640625
1681262549821698300,5.2286982421875,0.704620361328125,0.170135498046875,-0.7030487060546875
1681262549831730400,5.23873046875,0.704803466796875,0.156982421875,-0.7010498046875
1681262549841762300,5.24876220703125,0.7034454345703125,0.1524200439453125,-0.697021484375
1681262549851794400,5.25879443359375,0.6986236572265625,0.161468505859375,-0.7006378173828125
1681262549861827300,5.268827392578125,0.6896209716796875,0.163177490234375,-0.703521728515625
1681262549871859200,5.278859130859375,0.682403564453125,0.1595458984375,-0.703125
1681262549881891600,5.2888916015625,0.687225341796875,0.1671295166015625,-0.697418212890625
1681262549891923500,5.29892333984375,0.6943359375,0.1546173095703125,-0.685699462890625
1681262549901955300,5.308955322265625,0.696563720703125,0.1554107666015625,-0.6856842041015625
1681262549911987200,5.3189873046875,0.695098876953125,0.163665771484375,-0.6939697265625
1681262549922019600,5.32901953125,0.70220947265625,0.1650543212890625,-0.6985626220703125
1681262549932051500,5.339051513671875,0.704864501953125,0.1687164306640625,-0.6988372802734375
1681262549942084400,5.34908447265625,0.7041015625,0.1722869873046875,-0.699951171875
1681262549952116500,5.359116455078125,0.7002716064453125,0.1646728515625,-0.7007598876953125
1681262549962148400,5.3691484375,0.6977691650390625,0.1666107177734375,-0.691131591796875
1681262549972180500,5.379180419921875,0.6971893310546875,0.1599273681640625,-0.6846771240234375
1681262549982212400,5.38921240234375,0.6977691650390625,0.1562652587890625,-0.680999755859375
1681262549992244500,5.399244384765625,0.6968231201171875,0.1561737060546875,-0.6835479736328125
1681262550002276400,5.4092763671875,0.6961212158203125,0.162322998046875,-0.6882171630859375
1681262550012309200,5.419309326171875,0.69830322265625,0.165252685546875,-0.6934051513671875
1681262550022341400,5.42934130859375,0.70074462890625,0.166961669921875,-0.6959228515625
1681262550032373500,5.43937353515625,0.703125,0.16632080078125,-0.6953277587890625
1681262550042405400,5.4494052734375,0.7040252685546875,0.16302490234375,-0.6958465576171875
1681262550052437200,5.459437255859375,0.70391845703125,0.16748046875,-0.693206787109375
1681262550062469400,5.469469482421875,0.7004852294921875,0.160003662109375,-0.68707275390625
1681262550072501500,5.47950146484375,0.7003021240234375,0.16680908203125,-0.687286376953125
1681262550082533400,5.489533447265625,0.7036895751953125,0.1730499267578125,-0.6849517822265625
1681262550092566500,5.49956640625,0.7042388916015625,0.1650390625,-0.6875
1681262550102598400,5.509598388671875,0.701751708984375,0.1683197021484375,-0.682464599609375
1681262550112630300,5.51963037109375,0.7036590576171875,0.16839599609375,-0.686431884765625
1681262550122662400,5.529662353515625,0.7011260986328125,0.168487548828125,-0.6898193359375
1681262550132694500,5.539694580078125,0.702972412109375,0.1605072021484375,-0.6916656494140625
1681262550142726400,5.549726318359375,0.703155517578125,0.159149169921875,-0.691070556640625
1681262550152758300,5.55975830078125,0.704010009765625,0.1575469970703125,-0.686767578125
1681262550162790400,5.569790283203125,0.7019195556640625,0.1571807861328125,-0.6869964599609375
1681262550172823300,5.5798232421875,0.69940185546875,0.16473388671875,-0.692047119140625
1681262550182855400,5.58985546875,0.6950225830078125,0.1641693115234375,-0.6986236572265625
1681262550192887300,5.59988720703125,0.693450927734375,0.1652984619140625,-0.69842529296875
1681262550202919200,5.609919189453125,0.695159912109375,0.1684112548828125,-0.692230224609375
1681262550212951300,5.619951416015625,0.6973876953125,0.1694488525390625,-0.6919097900390625
1681262550222983400,5.6299833984375,0.6964569091796875,0.1575164794921875,-0.6961669921875
1681262550233015300,5.640015380859375,0.6968231201171875,0.1598663330078125,-0.6965484619140625
1681262550243048200,5.650048095703125,0.6991424560546875,0.163726806640625,-0.6939849853515625
1681262550253080300,5.660080322265625,0.7014617919921875,0.1649322509765625,-0.68963623046875
1681262550263112200,5.6701123046875,0.70721435546875,0.1637115478515625,-0.6889801025390625
1681262550273144300,5.680144287109375,0.7097015380859375,0.173492431640625,-0.6865997314453125
1681262550283176200,5.69017626953125,0.7065277099609375,0.1743621826171875,-0.6890716552734375
1681262550293208300,5.700208251953125,0.7033843994140625,0.175628662109375,-0.69195556640625
1681262550303240200,5.710240234375,0.703277587890625,0.177093505859375,-0.6874237060546875
1681262550313272300,5.720272216796875,0.7029266357421875,0.1730194091796875,-0.6780242919921875
1681262550323305500,5.730305419921875,0.701812744140625,0.16558837890625,-0.678466796875
1681262550333337300,5.74033740234375,0.702484130859375,0.16796875,-0.68572998046875
1681262550343369200,5.750369140625,0.705810546875,0.1791839599609375,-0.686614990234375
1681262550353401000,5.760401123046875,0.709136962890625,0.191162109375,-0.683258056640625
1681262550363433500,5.77043359375,0.707305908203125,0.1913604736328125,-0.6915130615234375
1681262550373465300,5.78046533203125,0.705963134765625,0.1937713623046875,-0.692352294921875
1681262550383497200,5.790497314453125,0.702178955078125,0.191497802734375,-0.69488525390625
1681262550393529000,5.800529052734375,0.69915771484375,0.184234619140625,-0.7059326171875
1681262550403562200,5.810562255859375,0.699676513671875,0.1778717041015625,-0.7056427001953125
1681262550413594400,5.820594482421875,0.6999969482421875,0.181671142578125,-0.6956787109375
1681262550423626200,5.830626220703125,0.7032318115234375,0.183746337890625,-0.68707275390625
1681262550433658400,5.840658447265625,0.70538330078125,0.1913604736328125,-0.6746978759765625
1681262550443690200,5.850690185546875,0.7053680419921875,0.18804931640625,-0.6731414794921875
1681262550453722000,5.86072216796875,0.7037200927734375,0.1722869873046875,-0.6717987060546875
1681262550463754200,5.870754150390625,0.7002410888671875,0.144256591796875,-0.674835205078125
1681262550473786400,5.880786376953125,0.69317626953125,0.1285247802734375,-0.6833038330078125
1681262550483819300,5.8908193359375,0.7011566162109375,0.1062164306640625,-0.6825714111328125
1681262550493851100,5.90085107421875,0.66802978515625,0.096954345703125,-0.7234344482421875
1681262550503883300,5.91088330078125,0.6900482177734375,0.1274566650390625,-0.7166290283203125
1681262550513915400,5.920915283203125,0.7059783935546875,0.1482696533203125,-0.6871795654296875
1681262550523947300,5.930947265625,0.704833984375,0.1603240966796875,-0.67572021484375
1681262550533979100,5.940979248046875,0.708343505859375,0.163726806640625,-0.6785736083984375
1681262550544011300,5.95101123046875,0.71051025390625,0.161651611328125,-0.6844482421875
1681262550554044200,5.961044189453125,0.7068328857421875,0.1626434326171875,-0.6883544921875
1681262550564076300,5.971076171875,0.7049102783203125,0.1590728759765625,-0.68914794921875
1681262550574108400,5.9811083984375,0.7062835693359375,0.1592254638671875,-0.687469482421875
1681262550584140300,5.991140380859375,0.71112060546875,0.165557861328125,-0.688873291015625
1681262550594172200,6.001172119140625,0.7100982666015625,0.1683807373046875,-0.6875152587890625
1681262550604204300,6.011204345703125,0.702972412109375,0.16943359375,-0.6867523193359375
1681262550614236400,6.021236328125,0.7047576904296875,0.13592529296875,-0.7007598876953125
1681262550624268300,6.031268310546875,0.6914520263671875,0.1456451416015625,-0.6859283447265625
1681262550634300200,6.041300048828125,0.6864166259765625,0.157958984375,-0.6839447021484375
1681262550644333300,6.051333251953125,0.6998291015625,0.1631317138671875,-0.68768310546875
1681262550654365200,6.061365234375,0.701446533203125,0.1768798828125,-0.6840057373046875
1681262550664397300,6.071397216796875,0.7019195556640625,0.175384521484375,-0.6824188232421875
1681262550674429200,6.08142919921875,0.7049102783203125,0.165313720703125,-0.686004638671875
1681262550684461300,6.09146142578125,0.7067108154296875,0.1577301025390625,-0.6817169189453125
1681262550694493200,6.1014931640625,0.7048187255859375,0.15093994140625,-0.6824951171875
1681262550704525300,6.111525390625,0.7035064697265625,0.15216064453125,-0.68505859375
1681262550714557200,6.12155712890625,0.7034454345703125,0.1590576171875,-0.6901397705078125
1681262550724590300,6.13159033203125,0.7036895751953125,0.16168212890625,-0.6945037841796875
1681262550734622200,6.141622314453125,0.702728271484375,0.165130615234375,-0.69390869140625
1681262550744654000,6.151654052734375,0.701568603515625,0.1640167236328125,-0.6876068115234375
1681262550754686500,6.1616865234375,0.703155517578125,0.1640472412109375,-0.6893463134765625
1681262550764718300,6.17171826171875,0.700592041015625,0.162841796875,-0.6884918212890625
1681262550774750200,6.181750244140625,0.7002105712890625,0.1609344482421875,-0.6881866455078125
1681262550784782000,6.191781982421875,0.699554443359375,0.159820556640625,-0.689483642578125
1681262550794815200,6.201815185546875,0.699615478515625,0.1566925048828125,-0.691192626953125
1681262550804847400,6.211847412109375,0.69976806640625,0.1563720703125,-0.693756103515625
1681262550814879200,6.221879150390625,0.6995697021484375,0.1575469970703125,-0.6954193115234375
1681262550824911400,6.231911376953125,0.7033843994140625,0.1569976806640625,-0.7071075439453125
1681262550834943200,6.241943115234375,0.687957763671875,0.154815673828125,-0.708282470703125
1681262550844975400,6.251975341796875,0.6909027099609375,0.1612701416015625,-0.6986083984375
1681262550855007200,6.26200732421875,0.6994476318359375,0.1619873046875,-0.6934356689453125
1681262550865039400,6.272039306640625,0.7000885009765625,0.158477783203125,-0.6961517333984375
1681262550875072300,6.282072265625,0.6914520263671875,0.151123046875,-0.69390869140625
1681262550885104000,6.292104248046875,0.6768951416015625,0.13848876953125,-0.6736602783203125
1681262550895136300,6.30213623046875,0.716827392578125,0.1491241455078125,-0.700103759765625
1681262550905168400,6.31216845703125,0.725128173828125,0.1759490966796875,-0.7293548583984375
1681262550915200300,6.3222001953125,0.6997528076171875,0.1629486083984375,-0.7208709716796875
1681262550925232000,6.332232177734375,0.683685302734375,0.1349639892578125,-0.69140625
1681262550935264300,6.34226416015625,0.69085693359375,0.1384124755859375,-0.6832122802734375
1681262550945296400,6.35229638671875,0.702056884765625,0.1586151123046875,-0.6906280517578125
1681262550955329300,6.362329345703125,0.69598388671875,0.163482666015625,-0.7015228271484375
1681262550965361400,6.372361328125,0.6915283203125,0.1524658203125,-0.6996307373046875
1681262550975393300,6.382393310546875,0.69464111328125,0.1486053466796875,-0.692474365234375
1681262550985425200,6.392425048828125,0.6992034912109375,0.150543212890625,-0.69256591796875
1681262550995457300,6.402457275390625,0.698822021484375,0.1514892578125,-0.692108154296875
1681262551005489400,6.412489501953125,0.6977386474609375,0.1514739990234375,-0.685638427734375
1681262551015521300,6.422521240234375,0.7016754150390625,0.1529693603515625,-0.6874847412109375
1681262551025553200,6.43255322265625,0.70330810546875,0.1539764404296875,-0.6869659423828125
1681262551035586300,6.44258642578125,0.7044525146484375,0.1566314697265625,-0.68536376953125
1681262551045618200,6.4526181640625,0.7041168212890625,0.1563568115234375,-0.688934326171875
1681262551055650300,6.462650390625,0.7029266357421875,0.1578521728515625,-0.69281005859375
1681262551065682200,6.47268212890625,0.7018280029296875,0.16314697265625,-0.6948699951171875
1681262551075714300,6.48271435546875,0.6989593505859375,0.1566314697265625,-0.6949462890625
1681262551085746200,6.49274609375,0.6975555419921875,0.1477203369140625,-0.700958251953125
1681262551095778300,6.5027783203125,0.694091796875,0.1513214111328125,-0.701446533203125
1681262551105810200,6.51281005859375,0.6901092529296875,0.153045654296875,-0.7023468017578125
1681262551115843300,6.52284326171875,0.6911468505859375,0.1530914306640625,-0.701171875
1681262551125875200,6.532875244140625,0.6903839111328125,0.1524200439453125,-0.6995849609375
1681262551135907000,6.542906982421875,0.6939849853515625,0.1512298583984375,-0.6981201171875
1681262551145939500,6.552939453125,0.6978302001953125,0.1495208740234375,-0.6975250244140625
1681262551155971300,6.562971435546875,0.699127197265625,0.1451416015625,-0.7010498046875
1681262551166003200,6.573003173828125,0.6986846923828125,0.148529052734375,-0.705841064453125
1681262551176036000,6.5830361328125,0.69451904296875,0.1508941650390625,-0.710235595703125
1681262551186068000,6.59306787109375,0.690155029296875,0.1553192138671875,-0.709381103515625
1681262551196100900,6.603100830078125,0.6892547607421875,0.1580810546875,-0.7073974609375
1681262551206133200,6.61313330078125,0.69073486328125,0.1590728759765625,-0.704071044921875
1681262551216165000,6.6231650390625,0.6929779052734375,0.1610565185546875,-0.7020721435546875
1681262551226197000,6.633197021484375,0.6943359375,0.162017822265625,-0.70135498046875
1681262551236228900,6.643228759765625,0.696258544921875,0.159912109375,-0.7015838623046875
1681262551246261000,6.653260986328125,0.6959381103515625,0.159820556640625,-0.7022247314453125
1681262551256293000,6.663293212890625,0.694000244140625,0.1556243896484375,-0.7017974853515625
1681262551266325000,6.673324951171875,0.694061279296875,0.1509246826171875,-0.6992950439453125
1681262551276356900,6.68335693359375,0.6934356689453125,0.1500396728515625,-0.697113037109375
1681262551286390000,6.69339013671875,0.6920318603515625,0.14825439453125,-0.694580078125
1681262551296422000,6.703421875,0.694580078125,0.1453704833984375,-0.6914520263671875
1681262551306454000,6.7134541015625,0.69964599609375,0.142181396484375,-0.68829345703125
1681262551316486100,6.723486083984375,0.70355224609375,0.140045166015625,-0.6864013671875
1681262551326518000,6.73351806640625,0.70770263671875,0.1405792236328125,-0.685577392578125
1681262551336550000,6.7435498046875,0.712158203125,0.1406097412109375,-0.6871185302734375
1681262551346582000,6.75358203125,0.7148895263671875,0.14080810546875,-0.6875152587890625
1681262551356614100,6.7636142578125,0.7148284912109375,0.142333984375,-0.6925506591796875
1681262551366647000,6.77364697265625,0.7125244140625,0.1461334228515625,-0.6973419189453125
1681262551376679000,6.783678955078125,0.7091522216796875,0.151092529296875,-0.6986846923828125
1681262551386711000,6.7937109375,0.70306396484375,0.1545867919921875,-0.7004241943359375
1681262551396743200,6.8037431640625,0.6981964111328125,0.154754638671875,-0.7032470703125
1681262551406775000,6.813775146484375,0.6942596435546875,0.1539764404296875,-0.7050628662109375
1681262551416807000,6.823806884765625,0.6911468505859375,0.155303955078125,-0.7099151611328125
1681262551426839000,6.833839111328125,0.68426513671875,0.1547698974609375,-0.71221923828125
1681262551436871200,6.84387109375,0.68316650390625,0.1539764404296875,-0.7152099609375
1681262551446904000,6.853904052734375,0.6811370849609375,0.155548095703125,-0.718658447265625
1681262551456936200,6.863936279296875,0.681121826171875,0.1562042236328125,-0.72174072265625
1681262551466968000,6.873968017578125,0.6794281005859375,0.160308837890625,-0.7193450927734375
1681262551477000000,6.884,0.6823272705078125,0.162445068359375,-0.7137298583984375
1681262551487032000,6.894031982421875,0.684844970703125,0.16754150390625,-0.7095489501953125
1681262551497064200,6.904064208984375,0.690948486328125,0.1703033447265625,-0.708099365234375
1681262551507096000,6.914095947265625,0.6962432861328125,0.1643829345703125,-0.704315185546875
1681262551517128000,6.9241279296875,0.6910400390625,0.14801025390625,-0.695098876953125
1681262551527161000,6.9341611328125,0.6984710693359375,0.1638641357421875,-0.6869354248046875
1681262551537193000,6.94419287109375,0.710723876953125,0.154815673828125,-0.674560546875
1681262551547225000,6.95422509765625,0.71832275390625,0.171295166015625,-0.6795196533203125
1681262551557257000,6.964257080078125,0.7171783447265625,0.1724700927734375,-0.663818359375
1681262551567289000,6.9742890625,0.7154998779296875,0.1563720703125,-0.662261962890625
1681262551577321000,6.984321044921875,0.7138214111328125,0.1421051025390625,-0.6654052734375
1681262551587353000,6.99435302734375,0.7137451171875,0.1639556884765625,-0.6722564697265625
1681262551597385000,7.004385009765625,0.715301513671875,0.1652679443359375,-0.6764678955078125
1681262551607418000,7.014418212890625,0.70709228515625,0.1584930419921875,-0.6893768310546875
1681262551617450000,7.024449951171875,0.7102508544921875,0.1692047119140625,-0.7000732421875
1681262551627481900,7.03448193359375,0.703826904296875,0.1532440185546875,-0.6981353759765625
1681262551637514200,7.04451416015625,0.703582763671875,0.160003662109375,-0.695343017578125
1681262551647546000,7.054546142578125,0.7095184326171875,0.16937255859375,-0.6932373046875
1681262551657578000,7.064577880859375,0.7093658447265625,0.167510986328125,-0.691070556640625
1681262551667609900,7.07460986328125,0.7044830322265625,0.1710052490234375,-0.6847686767578125
1681262551677642000,7.08464208984375,0.701690673828125,0.1672515869140625,-0.6809539794921875
1681262551687675000,7.0946748046875,0.7029571533203125,0.1649169921875,-0.6745758056640625
1681262551697707000,7.10470703125,0.706634521484375,0.167388916015625,-0.6707763671875
1681262551707739100,7.1147392578125,0.7081451416015625,0.1638641357421875,-0.6734771728515625
1681262551717771000,7.12477099609375,0.71044921875,0.165374755859375,-0.67236328125
1681262551727803000,7.134802978515625,0.7147979736328125,0.16876220703125,-0.6763916015625
1681262551737835000,7.1448349609375,0.7196502685546875,0.1630096435546875,-0.6800384521484375
1681262551747867100,7.1548671875,0.7186431884765625,0.1607818603515625,-0.68084716796875
1681262551757899000,7.16489892578125,0.713287353515625,0.159088134765625,-0.680877685546875
1681262551767932000,7.174931884765625,0.7073822021484375,0.1482391357421875,-0.6809844970703125
1681262551777964000,7.184964111328125,0.699310302734375,0.1554718017578125,-0.6801910400390625
1681262551787996200,7.19499609375,0.699676513671875,0.16351318359375,-0.67730712890625
1681262551798028000,7.205028076171875,0.7142181396484375,0.1682586669921875,-0.6758575439453125
1681262551808060000,7.215059814453125,0.720977783203125,0.1551666259765625,-0.6723175048828125
1681262551818092000,7.225092041015625,0.72686767578125,0.1423492431640625,-0.667694091796875
1681262551828124200,7.235124267578125,0.7281036376953125,0.1487884521484375,-0.665191650390625
1681262551838156000,7.245156005859375,0.7343902587890625,0.1630096435546875,-0.6549530029296875
1681262551848188000,7.25518798828125,0.7405853271484375,0.172637939453125,-0.6544342041015625
1681262551858221000,7.265220947265625,0.7417755126953125,0.1694793701171875,-0.6699066162109375
1681262551868253000,7.2752529296875,0.7389068603515625,0.18585205078125,-0.6773834228515625
1681262551878285000,7.28528515625,0.730712890625,0.19635009765625,-0.675079345703125
1681262551888317200,7.295317138671875,0.7225189208984375,0.18939208984375,-0.68621826171875
1681262551898349000,7.30534912109375,0.7076873779296875,0.161773681640625,-0.6920928955078125
1681262551908381000,7.315380859375,0.6822509765625,0.1551971435546875,-0.67279052734375
1681262551918412800,7.325412841796875,0.6630859375,0.1621856689453125,-0.653106689453125
1681262551928445200,7.335445068359375,0.667144775390625,0.156951904296875,-0.6420745849609375
1681262551938478000,7.34547802734375,0.6865997314453125,0.1512908935546875,-0.644317626953125
1681262551948510000,7.355510009765625,0.7050018310546875,0.1674041748046875,-0.658660888671875
1681262551958542000,7.3655419921875,0.7271270751953125,0.1621856689453125,-0.6750335693359375
1681262551968574000,7.375573974609375,0.739166259765625,0.1514129638671875,-0.6783447265625
1681262551978606000,7.385606201171875,0.7318267822265625,0.1562042236328125,-0.6716461181640625
1681262551988638000,7.395637939453125,0.727142333984375,0.1741790771484375,-0.670257568359375
1681262551998670000,7.405670166015625,0.7326202392578125,0.1732940673828125,-0.6690521240234375
1681262552008702000,7.415701904296875,0.7312774658203125,0.16790771484375,-0.675323486328125
1681262552018734800,7.42573486328125,0.7319183349609375,0.13958740234375,-0.6827850341796875
1681262552028767200,7.435767333984375,0.723968505859375,0.1830291748046875,-0.6679229736328125
1681262552038799000,7.445799072265625,0.714508056640625,0.2570953369140625,-0.651611328125
1681262552048831000,7.4558310546875,0.73431396484375,0.175994873046875,-0.6784210205078125
1681262552058862800,7.46586279296875,0.7422332763671875,0.11981201171875,-0.6608734130859375
1681262552068895000,7.47589501953125,0.724334716796875,0.1303558349609375,-0.65460205078125
1681262552078927000,7.485927001953125,0.71368408203125,0.1572418212890625,-0.661956787109375
1681262552088959000,7.495958984375,0.720306396484375,0.1793975830078125,-0.66705322265625
1681262552098992000,7.5059921875,0.720855712890625,0.183197021484375,-0.6694488525390625
1681262552109024000,7.51602392578125,0.7139892578125,0.15863037109375,-0.666473388671875
1681262552119056000,7.526055908203125,0.7063751220703125,0.13800048828125,-0.661041259765625
1681262552129088000,7.536087890625,0.6934967041015625,0.1339569091796875,-0.6567535400390625
1681262552139120000,7.5461201171875,0.6841583251953125,0.1401519775390625,-0.6526947021484375
1681262552149152000,7.556152099609375,0.684478759765625,0.1462249755859375,-0.653961181640625
1681262552159184000,7.566183837890625,0.6956634521484375,0.154571533203125,-0.6613922119140625
1681262552169216000,7.576216064453125,0.71484375,0.154296875,-0.6624755859375
1681262552179247600,7.58624755859375,0.736907958984375,0.1547698974609375,-0.6803436279296875
1681262552189280500,7.596280517578125,0.7419281005859375,0.163909912109375,-0.705596923828125
1681262552199312400,7.6063125,0.731658935546875,0.168792724609375,-0.7189483642578125
1681262552209344500,7.616344482421875,0.7179412841796875,0.1622467041015625,-0.7055511474609375
1681262552219376600,7.626376708984375,0.7113494873046875,0.1585845947265625,-0.6833648681640625
1681262552229408500,7.636408447265625,0.7149658203125,0.155364990234375,-0.6626739501953125
1681262552239440400,7.6464404296875,0.7135162353515625,0.1639251708984375,-0.657562255859375
1681262552249472500,7.656472412109375,0.709625244140625,0.1658935546875,-0.6583251953125
1681262552259504600,7.666504638671875,0.707122802734375,0.163909912109375,-0.67218017578125
1681262552269537500,7.67653759765625,0.7060546875,0.1748504638671875,-0.686431884765625
1681262552279569700,7.686569580078125,0.716644287109375,0.182342529296875,-0.6876678466796875
1681262552289601500,7.6966015625,0.723541259765625,0.1685943603515625,-0.6875152587890625
1681262552299633400,7.70663330078125,0.7215118408203125,0.1534576416015625,-0.69342041015625
1681262552309665500,7.71666552734375,0.712432861328125,0.1408233642578125,-0.69439697265625
1681262552319697700,7.72669775390625,0.6942901611328125,0.1073455810546875,-0.6854400634765625
1681262552329729500,7.7367294921875,0.697998046875,0.0979461669921875,-0.664642333984375
1681262552339761400,7.746761474609375,0.7122955322265625,0.191741943359375,-0.6723785400390625
1681262552349794600,7.756794677734375,0.711273193359375,0.198577880859375,-0.7167205810546875
1681262552359826700,7.76682666015625,0.7024688720703125,0.20697021484375,-0.745025634765625
1681262552369858600,7.776858642578125,0.7087554931640625,0.1774139404296875,-0.7452850341796875
1681262552379890400,7.786890380859375,0.6999664306640625,0.133636474609375,-0.710601806640625
1681262552389922600,7.796922607421875,0.69439697265625,0.111053466796875,-0.679779052734375
1681262552399954400,7.806954345703125,0.7031097412109375,0.1160430908203125,-0.6822967529296875
1681262552409986600,7.816986572265625,0.717132568359375,0.14971923828125,-0.6984100341796875
1681262552420018400,7.827018310546875,0.713287353515625,0.1673126220703125,-0.7175445556640625
1681262552430051600,7.837051513671875,0.7178192138671875,0.1923675537109375,-0.7332000732421875
1681262552440083500,7.84708349609375,0.70263671875,0.1521453857421875,-0.7274322509765625
1681262552450115300,7.857115234375,0.6841583251953125,0.127960205078125,-0.6915740966796875
1681262552460147700,7.867147705078125,0.693634033203125,0.1211090087890625,-0.6768035888671875
1681262552470179600,7.8771796875,0.7013092041015625,0.1040496826171875,-0.6683349609375
1681262552480211500,7.88721142578125,0.7103729248046875,0.1102447509765625,-0.6611328125
1681262552490243300,7.897243408203125,0.71014404296875,0.1282806396484375,-0.6748809814453125
1681262552500275700,7.907275634765625,0.71099853515625,0.1572113037109375,-0.688140869140625
1681262552510307600,7.9173076171875,0.7159271240234375,0.182769775390625,-0.6925506591796875
1681262552520340500,7.927340576171875,0.7195587158203125,0.1648712158203125,-0.6953277587890625
1681262552530372600,7.93737255859375,0.7049407958984375,0.1407928466796875,-0.700347900390625
1681262552540404500,7.947404541015625,0.69976806640625,0.1431121826171875,-0.6982269287109375
1681262552550436600,7.9574365234375,0.6903228759765625,0.152740478515625,-0.6888580322265625
1681262552560468500,7.967468505859375,0.702423095703125,0.1688232421875,-0.6731414794921875
1681262552570500600,7.97750048828125,0.721343994140625,0.185943603515625,-0.6649627685546875
1681262552580532500,7.987532470703125,0.7201995849609375,0.1707000732421875,-0.6736907958984375
1681262552590564600,7.997564697265625,0.704193115234375,0.1336212158203125,-0.679901123046875
1681262552600597500,8.007597412109375,0.6938934326171875,0.1123504638671875,-0.6836090087890625
1681262552610629600,8.017629638671876,0.702880859375,0.1200408935546875,-0.6742095947265625
1681262552620661500,8.02766162109375,0.72125244140625,0.130645751953125,-0.6747589111328125
1681262552630693400,8.037693359375,0.7137451171875,0.12249755859375,-0.6869659423828125
1681262552640725500,8.0477255859375,0.7055206298828125,0.1249542236328125,-0.6819000244140625
1681262552650757600,8.057757568359374,0.7073211669921875,0.136993408203125,-0.672821044921875
1681262552660789500,8.06778955078125,0.708160400390625,0.143768310546875,-0.670928955078125
1681262552670821400,8.0778212890625,0.7123870849609375,0.158935546875,-0.6594390869140625
1681262552680853500,8.087853515625,0.7130126953125,0.1751251220703125,-0.6599884033203125
1681262552690886400,8.097886474609375,0.7198333740234375,0.18328857421875,-0.6685791015625
1681262552700918500,8.10791845703125,0.7318572998046875,0.159423828125,-0.6856842041015625
1681262552710950700,8.11795068359375,0.7123565673828125,0.15216064453125,-0.709808349609375
1681262552720982500,8.127982421875,0.6989898681640625,0.14459228515625,-0.7274932861328125
1681262552731014400,8.138014404296875,0.7025146484375,0.1427154541015625,-0.720947265625
1681262552741046500,8.148046630859374,0.7109527587890625,0.1471710205078125,-0.69775390625
1681262552751078700,8.15807861328125,0.71075439453125,0.1543426513671875,-0.675628662109375
1681262552761110500,8.168110595703125,0.70501708984375,0.1804962158203125,-0.675811767578125
1681262552771143400,8.178143310546876,0.710723876953125,0.1807708740234375,-0.68505859375
1681262552781175600,8.188175537109375,0.7151336669921875,0.17022705078125,-0.6829986572265625
1681262552791207400,8.19820751953125,0.7120208740234375,0.1149749755859375,-0.6598358154296875
1681262552801239600,8.208239501953125,0.714202880859375,0.0124053955078125,-0.619232177734375
1681262552811271400,8.218271484375,0.703033447265625,-0.058380126953125,-0.572174072265625
1681262552821303600,8.228303466796875,0.6808624267578125,0.0183563232421875,-0.563446044921875
1681262552831335400,8.23833544921875,0.6800537109375,0.192138671875,-0.6444549560546875
1681262552841367600,8.248367431640625,0.6834716796875,0.225677490234375,-0.6656036376953125
1681262552851399400,8.2583994140625,0.7076873779296875,0.2223968505859375,-0.67718505859375
1681262552861432600,8.2684326171875,0.6982421875,0.2671051025390625,-0.7228546142578125
1681262552871464400,8.27846435546875,0.707275390625,0.2864837646484375,-0.7527923583984375
1681262552881496300,8.288496337890624,0.7187652587890625,0.3023834228515625,-0.77978515625
1681262552891528700,8.29852880859375,0.7456512451171875,0.28143310546875,-0.792999267578125
1681262552901560600,8.308560546875,0.7286834716796875,0.251922607421875,-0.77276611328125
1681262552911592400,8.318592529296875,0.6992645263671875,0.238433837890625,-0.7290191650390625
1681262552921624300,8.328624267578125,0.667724609375,0.190887451171875,-0.7222137451171875
1681262552931657500,8.338657470703126,0.6308746337890625,0.1055908203125,-0.687469482421875
1681262552941689600,8.348689697265625,0.6541900634765625,0.10638427734375,-0.631439208984375
1681262552951721500,8.358721435546874,0.7435150146484375,0.2014007568359375,-0.59625244140625
1681262552961753600,8.368753662109375,0.753448486328125,0.2158203125,-0.6434783935546875
1681262552971785500,8.378785400390624,0.7000274658203125,0.2113494873046875,-0.7007293701171875
1681262552981817600,8.388817626953125,0.650421142578125,0.2299041748046875,-0.72607421875
1681262552991849500,8.398849365234375,0.64654541015625,0.2439422607421875,-0.712890625
1681262553001881600,8.408881591796876,0.668701171875,0.2276611328125,-0.69207763671875
1681262553011914500,8.41891455078125,0.67510986328125,0.1863861083984375,-0.6811370849609375
1681262553021946400,8.4289462890625,0.6903533935546875,0.160980224609375,-0.6900482177734375
1681262553031978500,8.438978515625,0.707977294921875,0.1840667724609375,-0.720733642578125
1681262553042010600,8.4490107421875,0.67498779296875,0.23577880859375,-0.7654571533203125
1681262553052042500,8.45904248046875,0.638946533203125,0.2667388916015625,-0.7829437255859375
1681262553062074400,8.469074462890624,0.6189727783203125,0.249267578125,-0.78875732421875
1681262553072106500,8.4791064453125,0.61431884765625,0.2236480712890625,-0.787811279296875
1681262553082138600,8.489138671875,0.62677001953125,0.1605377197265625,-0.75732421875
1681262553092171500,8.499171630859376,0.621551513671875,0.1100311279296875,-0.7244720458984375
1681262553102203600,8.50920361328125,0.590911865234375,0.137115478515625,-0.6950531005859375
1681262553112235500,8.519235595703124,0.5968017578125,0.13201904296875,-0.649932861328125
1681262553122267400,8.529267333984375,0.5806121826171875,0.133270263671875,-0.6891021728515625
1681262553132299500,8.539299560546874,0.61260986328125,0.132843017578125,-0.72528076171875
1681262553142331600,8.54933154296875,0.6392974853515625,0.088043212890625,-0.73419189453125
1681262553152363500,8.559363525390625,0.6330718994140625,0.0532379150390625,-0.766326904296875
1681262553162395400,8.5693955078125,0.6232757568359375,-0.0354156494140625,-0.793060302734375
1681262553172428500,8.579428466796875,0.636322021484375,-0.123260498046875,-0.8704681396484375
1681262553182460700,8.589460693359374,0.6286773681640625,-0.0677337646484375,-0.9107818603515625
1681262553192493000,8.5994931640625,0.596405029296875,0.061492919921875,-0.8679656982421875
1681262553202525000,8.60952490234375,0.5701751708984375,0.177398681640625,-0.85986328125
1681262553212556800,8.619556884765625,0.54864501953125,0.1542816162109375,-0.84796142578125
1681262553222588700,8.629588623046875,0.54718017578125,0.145477294921875,-0.876068115234375
1681262553232621000,8.63962109375,0.5503997802734375,0.16180419921875,-0.887054443359375
1681262553242653000,8.64965283203125,0.5444793701171875,0.130218505859375,-0.857940673828125
1681262553252685800,8.659685791015624,0.52313232421875,0.1090545654296875,-0.8321685791015625
1681262553262718000,8.669718017578125,0.4999847412109375,0.1101531982421875,-0.8356170654296875
1681262553272749800,8.679749755859374,0.5117034912109375,0.1294097900390625,-0.8465728759765625
1681262553282782000,8.689781982421875,0.54730224609375,0.158660888671875,-0.832763671875
1681262553292813800,8.699813720703125,0.5610198974609375,0.1381683349609375,-0.7973175048828125
1681262553302846000,8.709845947265626,0.5723876953125,0.114166259765625,-0.7838287353515625
1681262553312877800,8.7198779296875,0.580352783203125,0.0310516357421875,-0.7590179443359375
1681262553322910000,8.729909912109376,0.5585784912109375,-0.0840301513671875,-0.7637176513671875
1681262553332942800,8.73994287109375,0.54742431640625,-0.132171630859375,-0.81536865234375
1681262553342975000,8.74997509765625,0.576568603515625,-0.1162567138671875,-0.875518798828125
1681262553353006800,8.7600068359375,0.55780029296875,-0.0071868896484375,-0.894561767578125
1681262553363038700,8.770038818359374,0.562835693359375,0.0549468994140625,-0.8441009521484375
1681262553373070800,8.78007080078125,0.601776123046875,-0.0468597412109375,-0.7375030517578125
1681262553383103000,8.79010302734375,0.7705535888671875,-0.5096282958984375,-0.4802398681640625
1681262553393134800,8.800134765625,0.9262542724609375,0.0201873779296875,-0.6959991455078125
1681262553403167000,8.8101669921875,0.233642578125,0.4211578369140625,-0.741912841796875
1681262553413200000,8.820199951171874,0.091217041015625,0.4353790283203125,-0.866424560546875
1681262553423231700,8.830231689453125,0.539093017578125,0.3596649169921875,-1.0004730224609375
1681262553433263900,8.840263916015624,0.73785400390625,0.240142822265625,-0.9537200927734375
1681262553443296000,8.8502958984375,0.78057861328125,0.05621337890625,-0.8566741943359375
1681262553453328000,8.860327880859375,0.6873779296875,0.02349853515625,-0.795745849609375
1681262553463359700,8.87035986328125,0.5889129638671875,0.0358428955078125,-0.7816162109375
1681262553473392000,8.88039208984375,0.6098175048828125,0.040191650390625,-0.7788848876953125
1681262553483424000,8.890424072265626,0.64691162109375,0.06951904296875,-0.7747344970703125
1681262553493457000,8.900456787109375,0.6548309326171875,0.1058349609375,-0.7841644287109375
1681262553503488800,8.91048876953125,0.6336822509765625,0.1021728515625,-0.8065643310546875
1681262553513521000,8.92052099609375,0.5816192626953125,0.086395263671875,-0.813323974609375
1681262553523552800,8.930552734375,0.5535888671875,0.0726318359375,-0.802703857421875
1681262553533585000,8.9405849609375,0.544952392578125,0.062713623046875,-0.8026580810546875
1681262553543617000,8.950616943359375,0.562744140625,0.0569000244140625,-0.797760009765625
1681262553553649000,8.96064892578125,0.5877838134765625,0.061676025390625,-0.796112060546875
1681262553563681800,8.970681884765625,0.5943603515625,0.0764007568359375,-0.7878875732421875
1681262553573713700,8.980713623046874,0.588653564453125,0.082916259765625,-0.780487060546875
1681262553583746000,8.99074609375,0.623077392578125,0.07659912109375,-0.777587890625
1681262553593778000,9.00077783203125,0.6378631591796875,0.063507080078125,-0.8045501708984375
1681262553603809800,9.010809814453125,0.6138458251953125,0.06610107421875,-0.8057861328125
1681262553613842000,9.020842041015625,0.6097412109375,0.0692291259765625,-0.8013458251953125
1681262553623874000,9.0308740234375,0.611114501953125,0.06451416015625,-0.789093017578125
1681262553633906000,9.040906005859375,0.6085357666015625,0.0720367431640625,-0.791595458984375
1681262553643938800,9.050938720703124,0.6055908203125,0.0766448974609375,-0.7958221435546875
1681262553653971000,9.060970947265625,0.6019134521484375,0.0735015869140625,-0.804931640625
1681262553664002800,9.0710029296875,0.5877685546875,0.0793914794921875,-0.8118743896484375
1681262553674035000,9.081034912109375,0.5811767578125,0.08245849609375,-0.8094482421875
1681262553684067000,9.091067138671875,0.582916259765625,0.07806396484375,-0.8080596923828125
1681262553694099000,9.101098876953126,0.5901947021484375,0.07318115234375,-0.807586669921875
1681262553704130800,9.111130859375,0.5956878662109375,0.0750732421875,-0.79833984375
1681262553714163000,9.121162841796876,0.60260009765625,0.068756103515625,-0.79638671875
1681262553724195800,9.13119580078125,0.602691650390625,0.092071533203125,-0.80126953125
1681262553734228000,9.14122802734375,0.605560302734375,0.09765625,-0.7693634033203125
1681262553744259800,9.151259765625,0.6037750244140625,-0.0089569091796875,-0.75885009765625
1681262553754292000,9.1612919921875,0.5850677490234375,0.0984954833984375,-0.7862701416015625
1681262553764323800,9.17132373046875,0.6167449951171875,0.0931396484375,-0.7644195556640625
1681262553774356000,9.18135595703125,0.5598907470703125,0.0590667724609375,-0.7597198486328125
1681262553784387800,9.191387939453126,0.5748748779296875,0.068939208984375,-0.7857818603515625
1681262553794420000,9.201419921875,0.6601409912109375,0.065032958984375,-0.7766265869140625
1681262553804451800,9.211451904296876,0.64068603515625,0.06756591796875,-0.795806884765625
1681262553814484700,9.221484619140625,0.668792724609375,0.1169281005859375,-0.8038330078125
1681262553824517000,9.23151708984375,0.6350250244140625,0.1594696044921875,-0.820709228515625
1681262553834549000,9.241549072265625,0.5677490234375,0.29248046875,-0.8315887451171875
1681262553844580900,9.251580810546875,0.5496978759765625,0.0872344970703125,-0.7855072021484375
1681262553854612700,9.26161279296875,0.6511993408203125,-0.0582275390625,-0.7501373291015625
1681262553864645000,9.27164501953125,0.61065673828125,0.032989501953125,-0.6911163330078125
1681262553874677000,9.281677001953126,0.5964813232421875,0.0908050537109375,-0.77984619140625
1681262553884710000,9.2917099609375,0.623779296875,0.0743255615234375,-0.8281707763671875
1681262553894742000,9.301741943359374,0.6287841796875,0.0843505859375,-0.7852325439453125
1681262553904774000,9.31177392578125,0.6045989990234375,0.084259033203125,-0.7624053955078125
1681262553914806000,9.321805908203125,0.6029205322265625,0.0646514892578125,-0.7573089599609375
1681262553924838000,9.331837890625,0.6034088134765625,0.061370849609375,-0.7542877197265625
1681262553934870000,9.3418701171875,0.5953826904296875,0.06683349609375,-0.765289306640625
1681262553944902000,9.35190185546875,0.586334228515625,0.0517730712890625,-0.7656402587890625
1681262553954933800,9.361933837890625,0.5851287841796875,0.03057861328125,-0.759490966796875
1681262553964967000,9.371966796875,0.586456298828125,0.0237884521484375,-0.7470855712890625
1681262553974999000,9.3819990234375,0.5944976806640625,0.0333251953125,-0.738128662109375
1681262553985031000,9.392031005859375,0.599365234375,0.0430145263671875,-0.742279052734375
1681262553995062800,9.402062744140625,0.6075592041015625,0.0344390869140625,-0.7494659423828125
1681262554005095000,9.412094970703125,0.6011810302734375,0.0192718505859375,-0.7726898193359375
1681262554015127000,9.422126953125,0.590057373046875,0.021087646484375,-0.806427001953125
1681262554025159000,9.432158935546875,0.590576171875,0.0392608642578125,-0.856689453125
1681262554035190800,9.442190673828126,0.5887451171875,0.0784454345703125,-0.8949432373046875
1681262554045224000,9.452223876953125,0.5657196044921875,0.1043243408203125,-0.937835693359375
1681262554055255800,9.462255859375,0.549041748046875,0.14801025390625,-0.8615264892578125
1681262554065288000,9.472287841796875,0.64013671875,0.23358154296875,-0.752166748046875
1681262554075320000,9.482320068359375,0.7171783447265625,0.1632232666015625,-0.7634429931640625
1681262554085352000,9.49235205078125,0.609039306640625,-0.023284912109375,-0.8253021240234375
1681262554095383800,9.5023837890625,0.5371246337890625,-0.0228118896484375,-0.844635009765625
1681262554105416000,9.512416015625,0.5436859130859375,0.0486907958984375,-0.8639068603515625
1681262554115448000,9.522447998046875,0.5971832275390625,0.1067047119140625,-0.8843536376953125
1681262554125481000,9.53248095703125,0.6204986572265625,0.02197265625,-0.8266143798828125
1681262554135512800,9.542512939453125,0.6090850830078125,0.01800537109375,-0.7176666259765625
1681262554145545000,9.552544921875,0.5908660888671875,0.039794921875,-0.716278076171875
1681262554155576800,9.562576904296876,0.57366943359375,0.0391693115234375,-0.719970703125
1681262554165609000,9.57260888671875,0.5910186767578125,0.0395965576171875,-0.7493438720703125
1681262554175640800,9.582640869140626,0.601776123046875,0.0448760986328125,-0.780120849609375
1681262554185672200,9.592672119140625,0.6127471923828125,0.043060302734375,-0.7938079833984375
1681262554195704300,9.602704345703126,0.610137939453125,0.0452880859375,-0.7877655029296875
1681262554205736200,9.612736083984375,0.5935211181640625,0.0730743408203125,-0.7982025146484375
1681262554215769300,9.622769287109374,0.56976318359375,0.0846099853515625,-0.807373046875
1681262554225801200,9.63280126953125,0.573638916015625,0.089691162109375,-0.8050384521484375
1681262554235833000,9.6428330078125,0.62200927734375,0.09930419921875,-0.8212738037109375
1681262554245865200,9.652865234375,0.6298370361328125,0.0487213134765625,-0.81201171875
1681262554255897300,9.6628974609375,0.6000518798828125,0.0348968505859375,-0.7952423095703125
1681262554265929200,9.67292919921875,0.564666748046875,0.1523895263671875,-0.855255126953125
1681262554275961000,9.682961181640625,0.5251617431640625,0.176849365234375,-0.8497161865234375
1681262554285994200,9.692994140625,0.51519775390625,0.13299560546875,-0.8186492919921875
1681262554296026000,9.703026123046875,0.5369720458984375,0.131591796875,-0.820953369140625
1681262554306058200,9.713058349609375,0.5511322021484375,0.09747314453125,-0.824432373046875
1681262554316090000,9.723090087890625,0.5639190673828125,0.049713134765625,-0.8174591064453125
1681262554326122200,9.733122314453125,0.624237060546875,0.042236328125,-0.8062896728515625
1681262554336154000,9.743154052734376,0.655548095703125,0.0577239990234375,-0.7743682861328125
1681262554346186200,9.753186279296875,0.627532958984375,0.0789337158203125,-0.7881622314453125
1681262554356218000,9.763218017578126,0.5852203369140625,0.100616455078125,-0.835357666015625
1681262554366250200,9.773250244140625,0.5823822021484375,0.1048126220703125,-0.8749847412109375
1681262554376283100,9.783283203125,0.5677947998046875,0.1132354736328125,-0.9017791748046875
1681262554386315000,9.79331494140625,0.547607421875,0.108428955078125,-0.900604248046875
1681262554396347400,9.803347412109375,0.541473388671875,0.06463623046875,-0.8747100830078125
1681262554406379300,9.813379150390626,0.5318603515625,0.0183258056640625,-0.85211181640625
1681262554416411100,9.8234111328125,0.5187530517578125,0.0496368408203125,-0.8354034423828125
1681262554426443000,9.833443115234376,0.5351409912109375,0.0907745361328125,-0.810516357421875
1681262554436475400,9.843475341796875,0.5528564453125,0.095306396484375,-0.7818603515625
1681262554446507300,9.85350732421875,0.544708251953125,0.0562744140625,-0.7858428955078125
1681262554456540200,9.8635400390625,0.52862548828125,0.0123443603515625,-0.812042236328125
1681262554466572300,9.873572265625,0.53216552734375,-0.006683349609375,-0.818084716796875
1681262554476604200,9.883604248046876,0.5312347412109375,-0.0263519287109375,-0.825958251953125
1681262554486636300,9.89363623046875,0.5255279541015625,-0.0318603515625,-0.8423614501953125
1681262554496668200,9.903668212890626,0.5130157470703125,0.013336181640625,-0.8661346435546875
1681262554506700300,9.9137001953125,0.533843994140625,0.08966064453125,-0.8704071044921875
1681262554516732200,9.923732177734376,0.61236572265625,0.1407470703125,-0.9085845947265625
1681262554526764000,9.933763916015625,0.51776123046875,0.112701416015625,-0.9947052001953125
1681262554536797200,9.943797119140624,0.4753265380859375,0.1075286865234375,-0.98309326171875
1681262554546829300,9.953829345703125,0.4854736328125,0.093231201171875,-0.989410400390625
1681262554556861200,9.963861083984375,0.482757568359375,0.094085693359375,-1.022064208984375
1681262554566893000,9.97389306640625,0.49957275390625,0.0712738037109375,-0.9912261962890625
1681262554576925200,9.98392529296875,0.4778900146484375,0.01531982421875,-0.930572509765625
1681262554586957300,9.993957275390626,0.4326629638671875,0.0118865966796875,-0.85626220703125
1681262554596989200,10.0039892578125,0.4810791015625,0.0318756103515625,-0.783843994140625
1681262554607021000,10.01402099609375,0.4965057373046875,0.0524139404296875,-0.7420196533203125
1681262554617054200,10.02405419921875,0.4898834228515625,0.0766448974609375,-0.7613983154296875
1681262554627086000,10.034086181640625,0.484222412109375,0.0980224609375,-0.851776123046875
1681262554637118200,10.0441181640625,0.4874725341796875,0.1292266845703125,-0.9517974853515625
1681262554647150300,10.054150390625,0.493896484375,0.154052734375,-0.993682861328125
1681262554657182200,10.06418212890625,0.4893035888671875,0.1315765380859375,-0.97528076171875
1681262554667214000,10.074214111328125,0.4596710205078125,0.104461669921875,-0.947906494140625
1681262554677246200,10.08424609375,0.43695068359375,0.09613037109375,-0.89544677734375
1681262554687278300,10.0942783203125,0.4399261474609375,0.0473175048828125,-0.83709716796875
1681262554697311200,10.104311279296875,0.4575042724609375,-0.0026092529296875,-0.796356201171875
1681262554707343000,10.114343017578125,0.4820556640625,0.00634765625,-0.8003082275390625
1681262554717375200,10.124375244140625,0.4984130859375,0.05938720703125,-0.8216400146484375
1681262554727407000,10.134406982421876,0.506500244140625,0.08636474609375,-0.82000732421875
1681262554737439200,10.144439208984375,0.5124969482421875,0.1270904541015625,-0.820587158203125
1681262554747471000,10.15447119140625,0.5113525390625,0.1474609375,-0.821868896484375
1681262554757503200,10.164503173828125,0.5004425048828125,0.1865081787109375,-0.830963134765625
1681262554767535000,10.17453515625,0.48907470703125,0.210357666015625,-0.81768798828125
1681262554777568000,10.184568115234375,0.4697265625,0.190521240234375,-0.7964324951171875
1681262554787600400,10.194600341796875,0.4662322998046875,0.1578216552734375,-0.796478271484375
1681262554797632300,10.20463232421875,0.4949951171875,0.0984039306640625,-0.7733001708984375
1681262554807664000,10.2146640625,0.5148162841796875,0.0386810302734375,-0.7387542724609375
1681262554817696000,10.224696044921876,0.487548828125,0.006439208984375,-0.7187347412109375
1681262554827728400,10.234728271484375,0.4820556640625,-0.0241546630859375,-0.7114715576171875
1681262554837760300,10.24476025390625,0.47674560546875,-0.0034637451171875,-0.7564697265625
1681262554847792000,10.254792236328125,0.4646148681640625,0.016937255859375,-0.8022918701171875
1681262554857825300,10.2648251953125,0.512603759765625,-0.0211944580078125,-0.8442535400390625
1681262554867857200,10.274857177734376,0.5258941650390625,-0.0151214599609375,-0.88763427734375
1681262554877889300,10.28488916015625,0.533203125,0.008270263671875,-0.89996337890625
1681262554887921200,10.294921142578126,0.561676025390625,0.062164306640625,-0.90777587890625
1681262554897953300,10.304953369140625,0.4568939208984375,0.15679931640625,-0.8919219970703125
1681262554907985200,10.314985107421874,0.332122802734375,0.2094573974609375,-0.848785400390625
1681262554918017000,10.32501708984375,0.28887939453125,0.2484283447265625,-0.853485107421875
1681262554928049200,10.335049072265624,0.3222808837890625,0.229736328125,-0.863067626953125
1681262554938082300,10.345082275390626,0.3615264892578125,0.159454345703125,-0.8834075927734375
1681262554948114200,10.3551142578125,0.3696746826171875,0.1007537841796875,-0.9001312255859375
1681262554958146000,10.36514599609375,0.3462066650390625,0.085693359375,-0.9404449462890625
1681262554968178200,10.37517822265625,0.3217315673828125,0.088775634765625,-0.96514892578125
1681262554978210300,10.385210205078126,0.3236541748046875,0.075225830078125,-0.9661102294921875
1681262554988242200,10.3952421875,0.3635101318359375,0.02056884765625,-0.980743408203125
1681262554998274000,10.405274169921874,0.4145660400390625,-0.035980224609375,-1.0410614013671875
1681262555008306200,10.41530615234375,0.3925323486328125,-0.033660888671875,-1.0396575927734375
1681262555018339000,10.425339111328125,0.3602294921875,-0.0314483642578125,-0.9990234375
1681262555028371200,10.43537109375,0.3430633544921875,-0.037841796875,-0.9708709716796875
1681262555038403300,10.4454033203125,0.316864013671875,-0.0623779296875,-0.991546630859375
1681262555048435200,10.455435302734376,0.278900146484375,0.00042724609375,-0.926422119140625
1681262555058467000,10.465467041015625,0.2642974853515625,0.1214599609375,-0.8679046630859375
1681262555068499200,10.475499267578124,0.2453765869140625,0.1941986083984375,-0.9333648681640625
1681262555078531300,10.48553125,0.246612548828125,0.1961822509765625,-0.9899444580078125
1681262555088563200,10.495563232421874,0.24072265625,0.1696929931640625,-0.9900360107421875
1681262555098596000,10.50559619140625,0.2364349365234375,0.147491455078125,-0.9609527587890625
1681262555108628200,10.515628173828125,0.23651123046875,0.171356201171875,-0.9487762451171875
1681262555118660000,10.52566015625,0.2285308837890625,0.2080230712890625,-0.947418212890625
1681262555128692200,10.535692138671875,0.2299652099609375,0.2137603759765625,-0.943267822265625
1681262555138724000,10.54572412109375,0.23065185546875,0.2100830078125,-0.9703826904296875
1681262555148756200,10.555756103515625,0.23016357421875,0.189910888671875,-0.9911041259765625
1681262555158788000,10.5657880859375,0.2398681640625,0.1762542724609375,-0.9793853759765625
1681262555168821000,10.575821044921875,0.2479248046875,0.17279052734375,-0.946868896484375
1681262555178853600,10.585853515625,0.249176025390625,0.17950439453125,-0.9256591796875
1681262555188885500,10.595885498046876,0.2563629150390625,0.206268310546875,-0.91552734375
1681262555198917600,10.605917724609375,0.2569580078125,0.2340850830078125,-0.92230224609375
1681262555208949500,10.615949462890624,0.254547119140625,0.24005126953125,-0.9429473876953125
1681262555218981600,10.625981689453125,0.2538299560546875,0.2362213134765625,-0.956878662109375
1681262555229013500,10.636013427734374,0.2484130859375,0.2171630859375,-0.9656982421875
1681262555239046700,10.646046630859376,0.2445220947265625,0.1918487548828125,-0.9640960693359375
1681262555249078500,10.65607861328125,0.2522735595703125,0.18231201171875,-0.961639404296875
1681262555259110400,10.6661103515625,0.2598419189453125,0.1819000244140625,-0.9573974609375
1681262555269142500,10.676142578125,0.2613983154296875,0.190185546875,-0.950347900390625
1681262555279174700,10.686174560546876,0.258636474609375,0.1925201416015625,-0.9351043701171875
1681262555289206500,10.69620654296875,0.263397216796875,0.1854095458984375,-0.9267120361328125
1681262555299238400,10.70623828125,0.261505126953125,0.179718017578125,-0.9368896484375
1681262555309270500,10.7162705078125,0.2568511962890625,0.1807861328125,-0.936370849609375
1681262555319303400,10.726303466796875,0.2527008056640625,0.19512939453125,-0.9414215087890625
1681262555329335600,10.73633544921875,0.249786376953125,0.2092132568359375,-0.947296142578125
1681262555339367700,10.74636767578125,0.244659423828125,0.2119140625,-0.94659423828125
1681262555349399600,10.756399658203126,0.2444610595703125,0.2110137939453125,-0.9435882568359375
1681262555359431400,10.766431396484375,0.246612548828125,0.2094268798828125,-0.9471588134765625
1681262555369463600,10.776463623046874,0.2473602294921875,0.2033538818359375,-0.9444427490234375
1681262555379495700,10.78649560546875,0.2508392333984375,0.1996002197265625,-0.946746826171875
1681262555389528600,10.796528564453125,0.2488250732421875,0.189605712890625,-0.945709228515625
1681262555399560400,10.806560546875,0.2544708251953125,0.19268798828125,-0.9361724853515625
1681262555409592600,10.816592529296875,0.252166748046875,0.2016448974609375,-0.9348602294921875
1681262555419624400,10.82662451171875,0.2500457763671875,0.2019805908203125,-0.937347412109375
1681262555429656600,10.836656494140625,0.247222900390625,0.210357666015625,-0.9395751953125
1681262555439688400,10.8466884765625,0.2462005615234375,0.202423095703125,-0.9466094970703125
1681262555449720600,10.856720458984375,0.24591064453125,0.2049713134765625,-0.955230712890625
1681262555459753500,10.86675341796875,0.2451019287109375,0.2106781005859375,-0.9592132568359375
1681262555469785300,10.876785400390625,0.2474365234375,0.2066497802734375,-0.9463653564453125
1681262555479817700,10.886817626953125,0.2524261474609375,0.204315185546875,-0.9324951171875
1681262555489849600,10.896849609375,0.2540130615234375,0.2075653076171875,-0.92279052734375
1681262555499881500,10.906881591796875,0.2535247802734375,0.20050048828125,-0.9203643798828125
1681262555509913300,10.916913330078126,0.252410888671875,0.19610595703125,-0.919097900390625
1681262555519945700,10.92694580078125,0.2526397705078125,0.194427490234375,-0.927276611328125
1681262555529978600,10.936978515625,0.2513275146484375,0.202484130859375,-0.94195556640625
1681262555540010500,10.947010498046875,0.25067138671875,0.2116241455078125,-0.9544525146484375
1681262555550042600,10.957042724609375,0.253509521484375,0.2090606689453125,-0.962921142578125
1681262555560074500,10.967074462890626,0.26385498046875,0.1914215087890625,-0.9664154052734375
1681262555570106600,10.977106689453125,0.2679901123046875,0.180419921875,-0.9527587890625
1681262555580138500,10.987138427734376,0.2666778564453125,0.17425537109375,-0.9227142333984375
1681262555590170600,10.997170654296875,0.2721710205078125,0.139495849609375,-0.88031005859375
1681262555600203500,11.00720361328125,0.27606201171875,0.1647796630859375,-0.8621673583984375
1681262555610235400,11.0172353515625,0.26654052734375,0.200347900390625,-0.8803253173828125
1681262555620267500,11.027267578125,0.2573089599609375,0.2187347412109375,-0.9073333740234375
1681262555630299600,11.037299560546876,0.2527313232421875,0.2290802001953125,-0.92987060546875
1681262555640331500,11.04733154296875,0.250701904296875,0.22186279296875,-0.9367828369140625
1681262555650363400,11.05736328125,0.25030517578125,0.2180633544921875,-0.9324951171875
1681262555660395500,11.0673955078125,0.25433349609375,0.2082061767578125,-0.94158935546875
1681262555670428400,11.077428466796874,0.2557220458984375,0.2112579345703125,-0.9543304443359375
1681262555680460500,11.08746044921875,0.253875732421875,0.216583251953125,-0.960723876953125
1681262555690492700,11.09749267578125,0.25146484375,0.228668212890625,-0.9714813232421875
1681262555700524500,11.107524658203126,0.24945068359375,0.2363128662109375,-0.9787750244140625
1681262555710556400,11.117556396484375,0.23553466796875,0.2176513671875,-0.990875244140625
1681262555720588500,11.127588623046876,0.2280120849609375,0.1964111328125,-1.0070037841796875
1681262555730620700,11.13762060546875,0.23114013671875,0.1803131103515625,-0.9958953857421875
1681262555740653600,11.147653564453124,0.231292724609375,0.1677093505859375,-0.973663330078125
1681262555750685400,11.157685546875,0.2369537353515625,0.176300048828125,-0.955841064453125
1681262555760717600,11.167717529296874,0.2359619140625,0.1963958740234375,-0.945098876953125
1681262555770749700,11.177749755859375,0.2314605712890625,0.2107391357421875,-0.9571685791015625
1681262555780781600,11.187781494140625,0.2366180419921875,0.207427978515625,-0.9500274658203125
1681262555790813400,11.1978134765625,0.2337799072265625,0.2100982666015625,-0.955657958984375
1681262555800845600,11.207845458984375,0.242523193359375,0.1985931396484375,-0.9414825439453125
1681262555810878500,11.21787841796875,0.2406463623046875,0.1811981201171875,-0.932281494140625
1681262555820910300,11.227910400390625,0.2476348876953125,0.183929443359375,-0.92706298828125
1681262555830942700,11.237942626953124,0.2432861328125,0.2000732421875,-0.9282379150390625
1681262555840974600,11.247974609375,0.2384796142578125,0.20703125,-0.9375
1681262555851006500,11.25800634765625,0.240753173828125,0.206787109375,-0.9547271728515625
1681262555861038300,11.268038330078125,0.2381591796875,0.222564697265625,-0.9671630859375
1681262555871070700,11.27807080078125,0.2432861328125,0.218536376953125,-0.96112060546875
1681262555881102600,11.2881025390625,0.2453460693359375,0.2108001708984375,-0.9552001953125
1681262555891135500,11.298135498046875,0.2617950439453125,0.2133331298828125,-0.9383544921875
1681262555901167600,11.308167724609374,0.25384521484375,0.20306396484375,-0.9293365478515625
1681262555911199500,11.318199462890625,0.2356719970703125,0.1844940185546875,-0.9487762451171875
1681262555921231600,11.328231689453125,0.226898193359375,0.1745452880859375,-0.9533843994140625
1681262555931263500,11.338263427734375,0.2279205322265625,0.1783447265625,-0.9517822265625
1681262555941295600,11.348295654296875,0.2341156005859375,0.185791015625,-0.9442138671875
1681262555951328500,11.35832861328125,0.2406005859375,0.1890411376953125,-0.94317626953125
1681262555961360400,11.3683603515625,0.246429443359375,0.1924896240234375,-0.944366455078125
1681262555971392500,11.378392578125,0.247406005859375,0.1900482177734375,-0.935455322265625
1681262555981424600,11.388424560546875,0.2521514892578125,0.185791015625,-0.925445556640625
1681262555991456500,11.39845654296875,0.251373291015625,0.1976165771484375,-0.931121826171875
1681262556001488400,11.40848828125,0.2506256103515625,0.19683837890625,-0.9331512451171875
1681262556011520500,11.4185205078125,0.2535400390625,0.195098876953125,-0.9335479736328125
1681262556021553400,11.428553466796876,0.2592620849609375,0.216094970703125,-0.933349609375
1681262556031585500,11.43858544921875,0.2568511962890625,0.2300262451171875,-0.9359283447265625
1681262556041617700,11.44861767578125,0.245635986328125,0.2256317138671875,-0.952972412109375
1681262556051649500,11.4586494140625,0.227630615234375,0.171844482421875,-0.9581451416015625
1681262556061681400,11.468681396484374,0.229461669921875,0.1183319091796875,-0.9655303955078125
1681262556071713500,11.478713623046875,0.2339935302734375,0.11541748046875,-0.98101806640625
1681262556081745700,11.48874560546875,0.262603759765625,0.117828369140625,-0.969757080078125
1681262556091778600,11.498778564453126,0.2812957763671875,0.1692962646484375,-0.93243408203125
1681262556101810400,11.508810546875,0.2731170654296875,0.1978912353515625,-0.93023681640625
1681262556111842600,11.518842529296874,0.261993408203125,0.1826934814453125,-0.9542999267578125
1681262556121874700,11.528874755859375,0.254608154296875,0.186798095703125,-0.9699554443359375
1681262556131906600,11.538906494140624,0.248443603515625,0.186981201171875,-0.964324951171875
1681262556141938400,11.5489384765625,0.241973876953125,0.1908721923828125,-0.956207275390625
1681262556151970600,11.558970458984374,0.2426300048828125,0.19195556640625,-0.9507293701171875
1681262556162003500,11.56900341796875,0.2492828369140625,0.1833038330078125,-0.94622802734375
1681262556172035300,11.579035400390625,0.2472686767578125,0.17236328125,-0.9444122314453125
1681262556182067500,11.5890673828125,0.2490692138671875,0.1717681884765625,-0.9473876953125
1681262556192099300,11.599099365234375,0.2508087158203125,0.1771392822265625,-0.943389892578125
1681262556202131500,11.60913134765625,0.2546539306640625,0.18060302734375,-0.9446258544921875
1681262556212163300,11.619163330078125,0.2548370361328125,0.1775665283203125,-0.94708251953125
1681262556222195500,11.629195556640624,0.2578277587890625,0.173126220703125,-0.9415130615234375
1681262556232227300,11.639227294921875,0.25897216796875,0.1722412109375,-0.9367828369140625
1681262556242260500,11.649260498046875,0.2600555419921875,0.1772308349609375,-0.9312896728515625
1681262556252292400,11.659292236328126,0.25732421875,0.177276611328125,-0.9332427978515625
1681262556262324200,11.66932421875,0.258026123046875,0.1802978515625,-0.938629150390625
1681262556272356600,11.679356689453124,0.2574615478515625,0.183013916015625,-0.945648193359375
1681262556282388500,11.689388427734375,0.255706787109375,0.179351806640625,-0.9459686279296875
1681262556292420400,11.69942041015625,0.252532958984375,0.1698455810546875,-0.9421844482421875
1681262556302452200,11.7094521484375,0.2529754638671875,0.166259765625,-0.938446044921875
1681262556312485400,11.7194853515625,0.248779296875,0.1631927490234375,-0.9450531005859375
1681262556322517500,11.729517578125,0.2519683837890625,0.1539154052734375,-0.9551544189453125
1681262556332549400,11.73954931640625,0.249725341796875,0.1755218505859375,-0.9579620361328125
1681262556342581500,11.74958154296875,0.259490966796875,0.1665802001953125,-0.965240478515625
1681262556352613400,11.75961328125,0.2653961181640625,0.16558837890625,-0.9621734619140625
1681262556362645500,11.7696455078125,0.26116943359375,0.1715087890625,-0.9513092041015625
1681262556372677400,11.779677490234375,0.2572784423828125,0.169647216796875,-0.9421844482421875
1681262556382710500,11.78971044921875,0.2559814453125,0.1672515869140625,-0.9415435791015625
1681262556392742400,11.799742431640626,0.254669189453125,0.17254638671875,-0.9397430419921875
1681262556402774300,11.809774169921875,0.2538604736328125,0.1658172607421875,-0.9410552978515625
1681262556412806400,11.819806396484376,0.254180908203125,0.177276611328125,-0.9552154541015625
1681262556422838500,11.829838623046875,0.2550201416015625,0.18280029296875,-0.962249755859375
1681262556432870400,11.839870361328124,0.2525787353515625,0.1745758056640625,-0.9670562744140625
1681262556442902300,11.84990234375,0.2530975341796875,0.170196533203125,-0.9623565673828125
1681262556452935400,11.859935302734375,0.252960205078125,0.164398193359375,-0.9517822265625
1681262556462967300,11.86996728515625,0.253692626953125,0.1666717529296875,-0.9402618408203125
1681262556472999400,11.87999951171875,0.25726318359375,0.1714324951171875,-0.931488037109375
1681262556483031600,11.890031494140626,0.2594451904296875,0.169921875,-0.9271697998046875
1681262556493063400,11.9000634765625,0.2587890625,0.1764984130859375,-0.9313507080078125
1681262556503095300,11.91009521484375,0.26214599609375,0.1778564453125,-0.9401397705078125
1681262556513127400,11.92012744140625,0.26385498046875,0.191680908203125,-0.9517669677734375
1681262556523160600,11.93016064453125,0.2643585205078125,0.20916748046875,-0.9581756591796875
1681262556533192400,11.9401923828125,0.262176513671875,0.2060699462890625,-0.95159912109375
1681262556543224300,11.950224365234375,0.2564697265625,0.181640625,-0.9372711181640625
1681262556553256400,11.96025634765625,0.2574462890625,0.149566650390625,-0.9131927490234375
1681262556563288600,11.97028857421875,0.2702178955078125,0.117645263671875,-0.8873291015625
1681262556573320400,11.980320556640624,0.2631072998046875,0.1440582275390625,-0.90045166015625
1681262556583352300,11.990352294921875,0.268341064453125,0.1547393798828125,-0.930084228515625
1681262556593384400,12.000384521484374,0.246673583984375,0.1713104248046875,-0.964874267578125
1681262556603417300,12.010417236328125,0.2534332275390625,0.14727783203125,-0.943511962890625
1681262556613449200,12.02044921875,0.25836181640625,0.123321533203125,-0.6895904541015625
1681262556623481600,12.030481689453126,0.2806854248046875,0.1673583984375,-0.8283233642578125
1681262556633513500,12.040513427734375,0.2741546630859375,0.1484375,-0.904937744140625
1681262556643545300,12.05054541015625,0.2939605712890625,0.101348876953125,-0.9071807861328125
1681262556653577200,12.0605771484375,0.3064117431640625,0.09564208984375,-0.918243408203125
1681262556663609600,12.070609619140624,0.3157958984375,0.1018524169921875,-0.9062957763671875
1681262556673642500,12.080642578125,0.335052490234375,0.0989532470703125,-0.88665771484375
1681262556683674400,12.09067431640625,0.34375,0.090911865234375,-0.856231689453125
1681262556693706500,12.10070654296875,0.344696044921875,0.0832061767578125,-0.8690948486328125
1681262556703738400,12.11073828125,0.3206329345703125,0.0626373291015625,-0.866119384765625
1681262556713770500,12.1207705078125,0.314117431640625,0.0503387451171875,-0.89471435546875
1681262556723802400,12.13080224609375,0.32464599609375,0.0617828369140625,-0.9330902099609375
1681262556733834500,12.14083447265625,0.3473358154296875,0.058502197265625,-0.939910888671875
1681262556743867400,12.150867431640625,0.36944580078125,0.0592041015625,-0.9075164794921875
1681262556753899300,12.160899169921874,0.391998291015625,0.021453857421875,-0.849609375
1681262556763931400,12.170931396484375,0.44049072265625,-0.0279541015625,-0.7700042724609375
1681262556773963500,12.180963623046875,0.451629638671875,-0.0279083251953125,-0.729248046875
1681262556783995400,12.190995361328126,0.4290008544921875,0.0052490234375,-0.728424072265625
1681262556794027300,12.20102734375,0.3764801025390625,0.0798492431640625,-0.742034912109375
1681262556804059400,12.211059326171876,0.2967987060546875,0.137908935546875,-0.8322906494140625
1681262556814092300,12.22109228515625,0.2899932861328125,0.15863037109375,-1.0125885009765625
1681262556824124400,12.23112451171875,0.321441650390625,0.1466064453125,-1.247100830078125
1681262556834156500,12.241156494140625,0.3622894287109375,0.1676788330078125,-1.4636688232421875
1681262556844188400,12.2511884765625,0.3681182861328125,0.210174560546875,-1.509979248046875
1681262556854220300,12.26122021484375,0.3605194091796875,0.21673583984375,-1.3223419189453125
1681262556864252400,12.27125244140625,0.3658294677734375,0.1511688232421875,-1.00823974609375
1681262556874284500,12.281284423828126,0.364013671875,0.1222381591796875,-0.90869140625
1681262556884316400,12.29131640625,0.367889404296875,0.1368865966796875,-0.8973388671875
1681262556894349300,12.301349365234374,0.375946044921875,0.129791259765625,-0.8946075439453125
1681262556904381400,12.31138134765625,0.3678131103515625,0.11151123046875,-0.900115966796875
1681262556914413600,12.32141357421875,0.3572235107421875,0.080474853515625,-0.9060516357421875
1681262556924445400,12.331445556640626,0.3880462646484375,0.037689208984375,-0.887939453125
1681262556934477300,12.341477294921875,0.446990966796875,-0.011199951171875,-0.843353271484375
1681262556944509400,12.351509521484376,0.3848876953125,0.0432281494140625,-0.903167724609375
1681262556954541600,12.36154150390625,0.3446197509765625,0.0634765625,-0.9163818359375
1681262556964574500,12.371574462890624,0.313873291015625,0.0955047607421875,-0.9228515625
1681262556974606600,12.381606689453125,0.3379364013671875,0.1256561279296875,-0.9422454833984375
1681262556984638500,12.391638427734375,0.4055023193359375,0.115814208984375,-0.931060791015625
1681262556994670300,12.40167041015625,0.432037353515625,0.09222412109375,-0.9132537841796875
1681262557004702200,12.4117021484375,0.4191131591796875,0.0888671875,-0.913726806640625
1681262557014734600,12.421734619140626,0.3978424072265625,0.0780181884765625,-0.9140167236328125
1681262557024766500,12.431766357421875,0.382354736328125,0.0613250732421875,-0.915496826171875
1681262557034799400,12.44179931640625,0.3770599365234375,0.0780181884765625,-0.9082794189453125
1681262557044831500,12.45183154296875,0.3862152099609375,0.0868377685546875,-0.9049072265625
1681262557054863400,12.46186328125,0.40289306640625,0.0955352783203125,-0.9073333740234375
1681262557064895500,12.4718955078125,0.403839111328125,0.0979156494140625,-0.906768798828125
1681262557074927400,12.48192724609375,0.3962249755859375,0.0936279296875,-0.9088592529296875
1681262557084959500,12.49195947265625,0.38983154296875,0.0878753662109375,-0.9095001220703125
1681262557094991400,12.501991455078125,0.38861083984375,0.0865325927734375,-0.909454345703125
1681262557105023500,12.5120234375,0.38824462890625,0.086090087890625,-0.906280517578125
1681262557115056600,12.522056640625,0.3876495361328125,0.085723876953125,-0.9034576416015625
1681262557125088500,12.532088623046874,0.384490966796875,0.0882720947265625,-0.90606689453125
1681262557135120400,12.542120361328125,0.3860321044921875,0.0911407470703125,-0.9122161865234375
1681262557145152300,12.55215234375,0.386077880859375,0.090972900390625,-0.916046142578125
1681262557155184400,12.562184326171876,0.3865966796875,0.08929443359375,-0.9171295166015625
1681262557165216500,12.572216552734375,0.382171630859375,0.087890625,-0.91485595703125
1681262557175248400,12.582248291015626,0.376708984375,0.07843017578125,-0.9123382568359375
1681262557185281800,12.59228173828125,0.381866455078125,0.0459442138671875,-0.9041748046875
1681262557195313700,12.602313720703124,0.4243316650390625,-0.052154541015625,-0.8904266357421875
1681262557205345500,12.612345458984375,0.4612579345703125,-0.24462890625,-0.8378753662109375
1681262557215377700,12.622377685546875,0.3942108154296875,-0.2163238525390625,-0.7406463623046875
1681262557225409800,12.632409912109376,0.340606689453125,-0.122802734375,-0.7671051025390625
1681262557235441700,12.642441650390625,0.332763671875,-0.1552276611328125,-0.877899169921875
1681262557245473500,12.6524736328125,0.326568603515625,-0.0781402587890625,-0.9538421630859375
1681262557255506000,12.662505859375,0.32281494140625,0.086883544921875,-1.0025787353515625
1681262557265538800,12.672538818359374,0.3761749267578125,0.2054443359375,-1.072906494140625
1681262557275570700,12.68257080078125,0.4300384521484375,0.2791900634765625,-1.1024322509765625
1681262557285602600,12.6926025390625,0.4507904052734375,0.26654052734375,-1.06695556640625
1681262557295634700,12.702634765625,0.4388580322265625,0.1806793212890625,-1.0042724609375
1681262557305666600,12.71266650390625,0.4017791748046875,0.0665283203125,-0.9496307373046875
1681262557315698700,12.72269873046875,0.3638916015625,0.0162200927734375,-0.910186767578125
1681262557325730800,12.732730712890625,0.353973388671875,0.03265380859375,-0.8893280029296875
1681262557335763700,12.742763671875,0.3549652099609375,0.0322113037109375,-0.8805084228515625
1681262557345795600,12.752795654296875,0.3752593994140625,-0.0287017822265625,-0.8815765380859375
1681262557355827500,12.762827392578124,0.3815765380859375,-0.0706329345703125,-0.8832550048828125
1681262557365859800,12.77285986328125,0.379486083984375,-0.1254730224609375,-0.8987274169921875
1681262557375891700,12.7828916015625,0.38525390625,-0.144256591796875,-0.91168212890625
1681262557385923600,12.792923583984376,0.4024658203125,-0.06640625,-0.9036102294921875
1681262557395955700,12.802955810546875,0.434539794921875,0.0555572509765625,-0.9104156494140625
1681262557405988600,12.812988525390624,0.4308013916015625,0.134002685546875,-0.9344940185546875
1681262557416020700,12.823020751953125,0.3882904052734375,0.158416748046875,-0.962677001953125
1681262557426052600,12.833052490234374,0.3667755126953125,0.141876220703125,-0.9670867919921875
1681262557436084700,12.843084716796875,0.365753173828125,0.1196136474609375,-0.95709228515625
1681262557446116600,12.85311669921875,0.3568267822265625,0.084930419921875,-0.9428863525390625
1681262557456148700,12.863148681640626,0.3567657470703125,0.0521697998046875,-0.923187255859375
1681262557466180900,12.873180908203125,0.360565185546875,0.0031280517578125,-0.9267425537109375
1681262557476212700,12.883212646484376,0.3611907958984375,-0.0328521728515625,-0.9381103515625
1681262557486245600,12.89324560546875,0.359039306640625,-0.0656585693359375,-0.951202392578125
1681262557496277500,12.903277587890624,0.3715057373046875,-0.1372528076171875,-0.98333740234375
1681262557506309600,12.9133095703125,0.3777618408203125,-0.12628173828125,-0.989349365234375
1681262557516341800,12.923341796875,0.3948822021484375,-0.04315185546875,-0.962677001953125
1681262557526373600,12.93337353515625,0.3662261962890625,0.06268310546875,-0.9071044921875
1681262557536405800,12.94340576171875,0.36029052734375,0.147308349609375,-0.897735595703125
1681262557546437600,12.953437744140626,0.3873443603515625,0.1810760498046875,-0.9051666259765625
1681262557556470500,12.963470458984375,0.3966064453125,0.183685302734375,-0.9193267822265625
1681262557566502700,12.973502685546874,0.4015045166015625,0.1680450439453125,-0.9147186279296875
1681262557576534800,12.98353466796875,0.3949737548828125,0.1351470947265625,-0.9142913818359375
1681262557586566700,12.993566650390624,0.37115478515625,0.0904541015625,-0.9239349365234375
1681262557596598500,13.0035986328125,0.3596343994140625,0.067047119140625,-0.93994140625
