time,seconds_elapsed,z,y,x
1681265150686015200,0.05801513671875,0.7847597998708487,-0.5860584516040981,0.22464842108041047
1681265150695948000,0.067947998046875,0.7056564525395631,-0.3781011992141604,0.4369041013166308
1681265150705881000,0.077881103515625,0.48222354472875595,-0.23801227197907865,0.6935423825062811
1681265150715815400,0.0878154296875,0.1896621556341648,-0.29677345383167264,1.1336853196136654
1681265150725748200,0.097748291015625,-0.5221048887401819,-0.48332456477321684,1.3259696404449641
1681265150735681300,0.107681396484375,-0.7229086161136626,-0.4977353674415499,1.0886647130176423
1681265150745615400,0.117615478515625,0.39910687010288237,-0.2877621721193194,1.1270828526087104
1681265150755548200,0.127548095703125,0.7983534409373998,-0.13458024681620298,1.1303275336183607
1681265150765481200,0.137481201171875,0.9525228429079056,-0.24894188146814702,0.602288724784553
1681265150775415300,0.147415283203125,1.2582312983453272,-0.5451753832042217,0.32081615432873367
1681265150785348000,0.15734814453125,1.6145540887326002,-0.4364829532951116,0.39417365148440003
1681265150795282200,0.1672822265625,0.8511135557442903,-0.19166969606429338,0.34113355069234963
1681265150805215200,0.17721533203125,0.24666589936017988,-0.18208543676957487,-0.023607889276370406
1681265150815148000,0.18714794921875,0.055960372152924535,0.44626025094389915,-0.41151334721148014
1681265150825081000,0.1970810546875,1.490766381022334,1.8793167857974766,-0.34019970390833915
1681265150835015400,0.207015380859375,1.8474965831667183,1.0759966623634099,0.26408574765138326
1681265150844948200,0.2169482421875,1.5460907933592796,-0.663442281666398,-0.08451105159372091
1681265150854882300,0.22688232421875,0.6382645857900381,-2.0298656591832636,-0.8945797725051641
1681265150864815400,0.2368154296875,0.32293431552648544,-2.052841461101174,-0.9056713676229119
1681265150874748200,0.246748046875,-0.7050473807305098,-1.9997201117664574,-0.5159618559405207
1681265150884682200,0.25668212890625,-2.7378596147596834,-1.331890408796072,0.7151964343011379
1681265150894615300,0.266615234375,-3.3930081153333185,0.3684326226368546,1.1254907611116767
1681265150904548000,0.276548095703125,-3.817141290143132,-1.1158201387077569,1.7625151375822723
1681265150914482200,0.286482177734375,-3.7122920916587114,-2.2594804704993963,2.4518162292569876
1681265150924415200,0.296415283203125,-3.027472090920806,-2.2484804991878566,1.713792023206502
1681265150934348000,0.30634814453125,-1.3495990839660168,-1.9582951915748417,0.8272736843429506
1681265150944282400,0.316282470703125,0.8566443018645048,-1.1783878001712262,-0.028613953935354947
1681265150954215200,0.326215087890625,1.6854460725575684,-0.5382762713402509,-0.3850600053761154
1681265150964148200,0.336148193359375,3.170885121077299,-0.3438341879531741,-0.646154973713681
1681265150974082300,0.346082275390625,3.6251375398188825,-1.0943719847485422,-0.9135252959936857
1681265150984015000,0.35601513671875,3.0362773286670444,-1.755577008882165,-0.9865405555829405
1681265150993948200,0.3659482421875,2.3751421548992395,-1.6184525574758648,-0.6532952739223837
1681265151003882200,0.37588232421875,1.3906307670563458,-1.2457573089584708,-0.31099761135410514
1681265151013815000,0.38581494140625,0.3122702981710434,-0.7924737352490424,0.22599618242755531
1681265151023748000,0.395748046875,-0.18360183268189428,-0.7494147841148078,0.34320670370459555
1681265151033682200,0.40568212890625,-0.533233016476035,-1.0120242486685513,0.36258981489278375
1681265151043615000,0.415614990234375,-0.635573447009921,-1.1633695331290363,0.5341774577192961
1681265151053548000,0.425548095703125,-0.7654208931505679,-1.265741381714493,0.5306577591605485
1681265151063482400,0.435482421875,-0.8046545869082212,-1.331491180345416,0.5367234158750623
1681265151073415200,0.445415283203125,-0.08864566718041897,-1.2744392135635016,0.5030152806058525
1681265151083348200,0.45534814453125,0.5550292532205582,-0.8994517624557018,0.39629890001006424
1681265151093282300,0.4652822265625,0.8208359063804149,-0.592305383169651,0.2646110866997391
1681265151103215000,0.475215087890625,0.7381932790070772,-0.07252192311435937,0.3785848910778761
1681265151113148200,0.485148193359375,0.42588206430375575,0.5139990314349532,0.5544153591059148
1681265151123082200,0.495082275390625,-0.18311901760101318,1.0567410500124097,0.6085697047501802
1681265151133015000,0.50501513671875,-0.5686567965567112,1.9205965984299778,0.30116167885325845
1681265151142949000,0.51494921875,0.11094985344707965,2.150118178504705,-0.15659187987707554
1681265151152882200,0.524882080078125,1.0049860205948353,1.4428443538963793,-1.2688590753436089
1681265151162815200,0.534815185546875,1.294385146266222,-0.13028116138279439,-1.7067980726659298
1681265151172749300,0.544749267578125,1.2305752296566963,-0.9182499864280224,-1.4500420103155076
1681265151182682400,0.554682373046875,0.8052356016665697,-1.6418047914907334,-1.1986615035235881
1681265151192615200,0.564615234375,0.8566267662078142,-1.6715183772310613,-0.7185529051221907
1681265151202549200,0.57454931640625,0.5458060823231935,-1.2088041273534298,-0.5119966055713594
1681265151212482300,0.584482421875,-0.538923337072134,-0.6725906337618828,-0.27040128747373815
1681265151222415000,0.5944150390625,-1.6929723764091729,-0.29286066430211066,0.41096477341800924
1681265151232349200,0.60434912109375,-2.4032769470155237,-0.1305108784854412,0.9575788111232221
1681265151242282200,0.6142822265625,-2.4800690947949886,-0.05699146876633167,1.0487557503469287
1681265151252215000,0.624215087890625,-1.929706664341688,0.3280883372887969,0.4730371987104416
1681265151262149000,0.634149169921875,-2.1630279289603234,-0.3588099310278892,0.08330474454388022
1681265151272082400,0.64408251953125,-1.5200070885539054,-1.1717565454632044,0.3582609188430011
1681265151282015200,0.65401513671875,-0.2235463050574064,-1.112039451125264,0.9847267841592431
1681265151291949300,0.66394921875,-0.04668167167603969,-1.1038348096206783,0.9622175768397748
1681265151301882400,0.67388232421875,-0.08855974246263504,-1.0165013940826058,0.6558119329184293
1681265151311815200,0.683815185546875,0.3427309028863907,-0.5080795782580971,0.2807001247785985
1681265151321749200,0.693749267578125,0.7946136698871851,-0.015091186147928237,0.07201689620167016
1681265151331682300,0.703682373046875,-0.616058014678955,-0.30231179873645303,0.05840747304409742
1681265151341615000,0.713614990234375,-1.6264853495448828,-0.34864451084434983,-0.30383681634664533
1681265151351549200,0.723549072265625,-1.0843787062615156,0.40485447384417056,-0.3550067393526435
1681265151361482200,0.733482177734375,-0.9379548038512467,1.1005910053938626,-0.411608624279499
1681265151371415000,0.7434150390625,-0.9605115035742521,1.4461355043962596,-0.5434697483301162
1681265151381349400,0.753349365234375,-1.3127648525655269,1.4300915475681424,-0.3976104940652847
1681265151391282400,0.763282470703125,-1.8895681306988,1.1114584363669155,-0.19603797427639363
1681265151401215200,0.77321533203125,-2.244208082565665,0.7865741558164357,-0.023713614673167467
1681265151411149300,0.7831494140625,-2.351346853291988,0.4753644726142287,-0.057798766561225054
1681265151421082400,0.793082275390625,-1.4472785369515417,0.29703619642108675,-0.3527825604971498
1681265151431015200,0.80301513671875,-0.8180038978248834,0.06142068338543176,-0.8359965045027434
1681265151440949200,0.81294921875,-0.3182645701497793,0.05077230199053883,-1.286153032232821
1681265151450882300,0.82288232421875,-0.06369827292859553,0.428092579960078,-1.4611004338160156
1681265151460815000,0.832815185546875,-0.5701128405839204,0.8900263469845056,-1.407265237123519
1681265151470749200,0.842749267578125,-0.7349351539939641,1.29163760112375,-1.3263015027478338
1681265151480682200,0.85268212890625,-0.449789009591937,1.510994345536828,-1.1153672803737222
1681265151490615000,0.862614990234375,-0.2800152112543583,1.3522592430859803,-0.8735900298379361
1681265151500549400,0.87254931640625,-0.5256628734827041,0.9892726108953356,-0.9410060081154108
1681265151510482400,0.882482421875,-0.5095043503642082,0.7202519641250371,-0.9276234525162727
1681265151520415200,0.892415283203125,-0.22251111679077148,0.7037649397045374,-0.766236008925736
1681265151530349300,0.902349365234375,-0.25441724413931366,0.6591375702098011,-0.4763547988258302
1681265151540282400,0.912282470703125,-0.5077022693783044,0.6269225230425596,-0.2506350221868604
1681265151550215200,0.922215087890625,-0.4484527925521135,0.8168941830173134,-0.25639387797452506
1681265151560149200,0.932149169921875,-0.5209177247822284,1.156238073813915,-0.21980046959258615
1681265151570082300,0.942082275390625,-0.4359346717625856,1.0855307989060878,-0.17401991147473453
1681265151580016000,0.95201611328125,-0.08010755593776703,0.8863046961128711,-0.5675056537602097
1681265151589949200,0.96194921875,-0.017598200532793998,1.135104100370407,-0.5833010426547378
1681265151599882200,0.97188232421875,-0.19042203409075736,1.4786854826062916,-0.3437619264345616
1681265151609816300,0.98181640625,-0.38782267502248285,1.808542875394225,0.140143068575114
1681265151619749400,0.991749267578125,-0.30954759520888325,1.979692638260126,0.37962884717285633
1681265151629682200,1.00168212890625,-0.14105273076593874,1.6677727609619497,0.2741539180055261
1681265151639616000,1.011615966796875,0.2660223417371511,1.20585696798563,-0.06675261899791657
1681265151649549000,1.021549072265625,0.5535632723212242,0.9707818454369902,-0.20582732768915593
1681265151659482000,1.031482177734375,0.5012503167599439,0.8295157641813159,0.20686222369484603
1681265151669416200,1.041416259765625,0.6872562879741192,0.5998989070385694,0.5672292845042423
1681265151679349200,1.051349365234375,0.9432914887040853,0.1816319939136505,0.3971008640427142
1681265151689282300,1.0612822265625,0.7653302922576666,0.003187690125405788,0.06663684713114053
1681265151699216100,1.071216064453125,0.6637152533888816,0.41204818474054333,0.12317231575828044
1681265151709149200,1.081149169921875,0.38006723859012126,0.8212041551709175,0.06599029285591096
1681265151719082200,1.091082275390625,0.2893184616506099,1.034554352645576,-0.037540516506321724
1681265151729016000,1.10101611328125,0.5901368069589138,1.0091355414897203,-0.2644158198559657
1681265151738949000,1.11094921875,0.8185428270071744,1.0199129560917615,-0.5092281637713313
1681265151748882200,1.120882080078125,0.8875725240916014,1.3259621877908705,-0.4371085743801668
1681265151758816000,1.13081591796875,1.0049936193794011,1.5761363875329493,-0.34442177858278156
1681265151768749000,1.1407490234375,0.9452624965161085,1.12730307123065,-0.4577210447002202
1681265151778682000,1.15068212890625,0.4020978686124086,0.319934256927669,-0.39046391024626786
1681265151788616200,1.1606162109375,-0.2665758839666843,-0.08735036667287349,0.03981288188509643
1681265151798549200,1.17054931640625,-0.6476005694121122,-0.06259732594937086,0.5465333006191998
1681265151808482000,1.18048193359375,-0.629146628832817,0.2093976604565978,0.897119081724435
1681265151818416000,1.190416015625,-0.3890232829838991,0.10427958190292119,0.8597327693991362
1681265151828349200,1.20034912109375,-0.1225683950483799,-0.34273908619284627,0.32005583748072386
1681265151838282000,1.210281982421875,0.19288287124633788,-0.6906684345051646,-0.1447544713607058
1681265151848216000,1.220216064453125,0.26155191832482816,-0.5979068564385175,-0.12760733906365931
1681265151858149000,1.230149169921875,0.13904372903108597,-0.31186697806715963,0.2270309688353911
1681265151868082000,1.24008203125,-0.03834405144155025,-0.21809330034852026,0.37481107162758703
1681265151878016000,1.25001611328125,-0.060796706268191336,-0.16380466080009937,0.23657518838066607
1681265151887949000,1.259948974609375,0.12736264358758925,-0.049266135211288926,-0.010427139859646559
1681265151897882000,1.269882080078125,0.4119184208810329,0.03391805169284343,-0.16910035605542362
1681265151907816200,1.279816162109375,0.22035072388648985,0.07441898890733718,-0.12011194180697202
1681265151917749200,1.289749267578125,-0.3503460540652275,0.05117284561544656,0.09011245179735124
1681265151927682000,1.29968212890625,-0.7157125671297311,0.030738837134838104,0.25080332795847204
1681265151937616100,1.3096162109375,-0.894742269590497,0.09752484694570303,0.3094554599460214
1681265151947549200,1.319549072265625,-0.8402847032159566,0.20325491991788147,0.2853871866162866
1681265151957482000,1.32948193359375,-0.546141013365984,0.24358985291570423,0.20835333903543649
1681265151967416000,1.339416015625,-0.10161036269366741,0.22112375408560037,0.0601950140479952
1681265151977349000,1.34934912109375,0.6170569625884295,0.3941302507340908,-0.37876112442761656
1681265151987282000,1.359281982421875,0.7463117035329342,0.4037003353729844,-0.45033546449355777
1681265151997216000,1.369216064453125,0.6497872658014298,0.07811725890338421,-0.1793293429944664
1681265152007149000,1.379149169921875,0.2686842544227838,-0.3242036048099398,0.11719444692507386
1681265152017081900,1.389081787109375,0.0448731609493494,-0.4507467487081885,0.35057957056015726
1681265152027016200,1.39901611328125,0.15431670148670673,-0.5240446246311068,0.4361141199827194
1681265152036949200,1.40894921875,0.45295945632159706,-0.17674451413303613,0.3577932282660156
1681265152046882000,1.418882080078125,0.4121861319065094,0.13890402829945087,0.22816768124774098
1681265152056816000,1.428816162109375,0.3071989862561226,0.2060404589831829,0.18836985080130397
1681265152066749200,1.438749267578125,0.3904261355191469,0.4435486538976431,0.2392548193860799
1681265152076682000,1.448681884765625,0.4100520424872637,0.5851897059455513,0.3162964118819684
1681265152086616000,1.458615966796875,0.5002274034529924,0.41880467326343057,0.3279210909631103
1681265152096549000,1.468549072265625,0.5933277119547128,0.18904197790920732,0.42361265806704756
1681265152106482000,1.47848193359375,0.8054799318164586,0.2415603929147124,0.505773420207575
1681265152116416000,1.488416015625,1.1078805778801442,0.05836918686032295,0.41077348862960933
1681265152126349000,1.49834912109375,1.5267729294270276,-0.09036182344853877,0.31767639499828215
1681265152136282000,1.5082822265625,1.8683868109822273,-0.11464315500706433,0.09672788788173348
1681265152146216200,1.51821630859375,1.8980857836753129,-0.17034224587529898,-0.12339534739181399
1681265152156149200,1.528149169921875,1.7374574148237705,-0.15799860486984252,-0.2946693942245096
1681265152166082000,1.53808203125,1.5259417392998933,-0.09200462221950292,-0.3695853728685528
1681265152176016100,1.54801611328125,1.3489280528366565,-0.0378887088894844,-0.3951790291346609
1681265152185949200,1.55794921875,1.2156512167692184,-0.03532031970620155,-0.4824806978275999
1681265152195882000,1.567882080078125,1.1074831029951573,-0.14158347664177418,-0.5588313123846427
1681265152205816000,1.577816162109375,0.7860948478668928,-0.2756605231761932,-0.5880606582719833
1681265152215749000,1.5877490234375,0.5116226576924324,-0.24767303057610987,-0.375369728423655
1681265152225682000,1.597681884765625,-0.022556699723005294,-0.1849710752084851,-0.35066249960325657
1681265152235616300,1.6076162109375,-0.5103390476226807,-0.29256957240104675,-0.29931440701875833
1681265152245549300,1.61754931640625,-0.5484586426585912,-0.6698325672253966,-0.5080694952555
1681265152255482000,1.627482177734375,-0.193492527577281,-1.1471677553907036,-0.7444337077666073
1681265152265416200,1.637416259765625,-0.08336042025387287,-1.3034215624198318,-0.8139701122641563
1681265152275349200,1.647349365234375,-0.27207389686107636,-1.1773366836830972,-0.8060264597833157
1681265152285282000,1.657281982421875,-0.2973848637282848,-1.0238681234583258,-0.873023335865885
1681265152295216000,1.667216064453125,-0.3126145815640688,-1.0294976537778973,-1.0120555205896495
1681265152305149200,1.677149169921875,-0.5752782605230808,-1.0605293363794683,-1.1071155117917806
1681265152315082000,1.68708203125,-0.8881330805838108,-1.1810972052603959,-1.07791528240107
1681265152325016000,1.69701611328125,-0.939252442446351,-1.361603702275455,-0.993019542338699
1681265152334949000,1.70694921875,-0.6656365768402814,-1.5820058640882373,-1.0062677309684456
1681265152344882000,1.7168818359375,-0.4031523461014032,-1.8495958935335277,-1.0827475979283452
1681265152354816300,1.726816162109375,-0.2517909872889519,-1.9997998990043997,-1.1509208243139089
1681265152364749300,1.736749267578125,-0.3150765877634287,-1.952818075338006,-1.0166730973877012
1681265152374682000,1.74668212890625,-0.5444458998858929,-1.8177718915104866,-0.8404902357254177
1681265152384616200,1.7566162109375,-0.9421417341470718,-1.6721145895585416,-0.7447995454043149
1681265152394549200,1.76654931640625,-1.3960831872433423,-1.471230782686174,-0.6067656510028988
1681265152404482000,1.77648193359375,-1.528536431968212,-1.1957850713044405,-0.48911366956867275
1681265152414416100,1.786416015625,-1.287932024604082,-1.025590709467232,-0.4652057744324207
1681265152424349200,1.79634912109375,-1.2169985397249459,-1.0233879387259484,-0.4740845158062875
1681265152434282000,1.806281982421875,-0.83253861913383,-0.946774070122838,-0.5018109463173895
1681265152444216000,1.816216064453125,0.03527238891124725,-0.7546744582086801,-0.5336593521293252
1681265152454149000,1.826149169921875,-0.43115211366116996,-0.9834323604345321,-0.700712566396594
1681265152464082000,1.83608203125,-0.31448446708917616,-0.7809364421904087,-0.8109477687682956
1681265152474016300,1.846016357421875,0.19151509002447129,-0.2418722353428602,-0.9207693488378077
1681265152483949300,1.85594921875,-0.2921218286335468,-0.6248994927823543,-0.80968293646425
1681265152493882000,1.865882080078125,-0.7338876907676458,-0.800742089639604,-0.7849076108437031
1681265152503816200,1.875816162109375,-0.6068295830845832,-0.7382341955393552,-0.6918520913317799
1681265152513749200,1.885749267578125,-0.22607027057707307,-0.8589975869923829,-0.40509252038374544
1681265152523682000,1.89568212890625,-0.08501052554845809,-1.0499579657435416,-0.2514822866659611
1681265152533616000,1.9056162109375,-0.04700549680292606,-1.141754790431261,-0.18252265914306043
1681265152543549200,1.915549072265625,-0.12649112145006655,-0.8414917409181595,-0.08372391980402172
1681265152553482000,1.92548193359375,0.05684007759690284,0.05671732800006866,0.1478808232203126
1681265152563416000,1.935416015625,0.16845336338877676,0.9603954759791493,0.4587197003487497
1681265152573349000,1.94534912109375,-0.716052174347639,0.5226584309697151,0.3506220214623958
1681265152583282000,1.955281982421875,-1.295524379429221,-0.4291209000945091,-0.08920037845373154
1681265152593216300,1.96521630859375,-1.197630406910181,-1.0474766703218221,-0.5252727781865746
1681265152603149000,1.975149169921875,-0.45347617367208004,-0.8245476203799247,-0.38574155789949
1681265152613082000,1.98508203125,0.34451837082505227,-0.12396598688662051,0.3515538224197924
1681265152623016200,1.99501611328125,0.3597854980617761,0.28053689704090357,0.9463770336292684
1681265152632949000,2.004948974609375,0.028823358902335165,0.30132980196177955,1.218573022500053
1681265152642882000,2.014882080078125,-0.0006511573851108551,0.2051844266757369,1.1523556063573808
1681265152652816100,2.024816162109375,-0.12776479464769364,0.23897505259662866,1.0502465003613382
1681265152662749000,2.0347490234375,-0.036437925559282304,0.6841273422986268,1.0511353389598428
1681265152672682000,2.044681884765625,-0.2071902135401964,1.3140242049768567,1.246400283037126
1681265152682616000,2.054615966796875,-0.5554390030652284,1.7214514519184827,1.5238751621589064
1681265152692548900,2.064548828125,-0.5843833579987288,1.7479186030834912,1.6759125205367802
1681265152702482000,2.07448193359375,-0.4248720104783773,1.4956243424475193,1.692033195862919
1681265152712416000,2.084416015625,-0.005963292318582535,1.057715740263462,1.5040648385345934
1681265152722349000,2.09434912109375,0.5233692095875739,0.6622954497188329,1.2395400418788194
1681265152732282000,2.1042822265625,0.9778490073442458,0.5503320353150367,1.0868971188232301
1681265152742216200,2.11421630859375,1.2457120085120201,0.6556552810519933,1.0400107183553278
1681265152752149000,2.12414892578125,1.2802391320139168,0.7475655029863119,1.012717637760192
1681265152762082000,2.13408203125,1.078154717180133,0.6459121779337526,1.0135037466365844
1681265152772016000,2.14401611328125,0.7253337974339723,0.48993981819450855,1.046848966877535
1681265152781949000,2.153948974609375,0.4185200111031532,0.44464024852663275,1.1017249778598546
1681265152791882000,2.163882080078125,0.38121816219091414,0.4565685867294669,1.0220806555196642
1681265152801815000,2.17381494140625,0.4644523257166147,0.4921498954594135,0.8190646589241921
1681265152811748900,2.183748779296875,0.4701338784843683,0.5698951061800122,0.7107507069386542
1681265152821682000,2.193681884765625,0.6154267310380935,0.5507677963837981,0.6278222483612597
1681265152831615000,2.203614990234375,0.7041103921413421,0.39148090526908635,0.5115198549050838
1681265152841549000,2.213549072265625,0.565052050063014,0.1716892765700817,0.521120626943186
1681265152851482000,2.223482177734375,0.3600806816160679,0.0939724151611328,0.6572079903867095
1681265152861415200,2.233415283203125,0.39085283649861813,0.07777794394642114,0.7862496731024236
1681265152871349000,2.243348876953125,0.48591713854968543,-0.026862287962436674,0.8796262412622571
1681265152881282000,2.253281982421875,0.352562561070919,-0.15134791480898857,0.8727729413013905
1681265152891215000,2.263215087890625,0.20839900480806825,-0.08917027557641267,0.7600292632400989
1681265152901149000,2.27314892578125,0.025727146452665328,0.19050591298192737,0.7081970038678497
1681265152911082000,2.28308203125,-0.2539490421056747,0.4785080313369631,0.6934141530167311
1681265152921015000,2.29301513671875,-0.4111211330235004,0.6578484071820974,0.660162675473839
1681265152930948900,2.302948974609375,-0.21931845822930335,0.6595832681506871,0.656895198110491
1681265152940882000,2.3128818359375,0.009298574221134186,0.36659517807662484,0.6783776196654886
1681265152950815000,2.32281494140625,0.17901333584785462,-0.025650574085116385,0.6194518949009478
1681265152960749000,2.3327490234375,0.37317046481370925,-0.2207236488521099,0.6073586484599858
1681265152970682000,2.34268212890625,0.3246159850031137,-0.2786176194161177,0.7327811908304691
1681265152980615200,2.352615234375,0.22105682632923124,-0.35414106243401766,0.7993598415009677
1681265152990549000,2.362549072265625,0.24835107596814632,-0.508849978108704,0.7015603423323482
1681265153000482000,2.37248193359375,0.6309188992023468,-0.602003478102386,0.4274009444341063
1681265153010415000,2.3824150390625,1.2059405546158553,-0.7206377485722303,-0.049852045340463516
1681265153020349000,2.392348876953125,1.5835340965688227,-0.7849953621923923,-0.33022008862048385
1681265153030282000,2.402281982421875,1.7715853098750114,-0.8114554990947246,-0.35552294524647293
1681265153040215000,2.412215087890625,1.7913491640090942,-0.914462869104743,-0.18326200626827777
1681265153050148900,2.42214892578125,1.4512795892864465,-0.9962897961810231,-0.024233035437390207
1681265153060082000,2.43208203125,0.9856319163054227,-0.9380509577021002,0.20333788549359888
1681265153070015000,2.442014892578125,0.47329029668867584,-0.7691203321903943,0.5177251027533785
1681265153079949000,2.451948974609375,0.0439537080168724,-0.8601493873760103,0.5787047278404236
1681265153089882000,2.461882080078125,-0.27131460292637344,-1.0249147099018097,0.462605894132331
1681265153099815200,2.471815185546875,-0.2611702255308628,-0.9867138663232325,0.354187970315665
1681265153109749000,2.4817490234375,-0.053308980861306185,-0.7616872595801949,0.3085901118209585
1681265153119682000,2.49168212890625,0.32748072678446766,-0.7194076222553849,0.20393307490777224
1681265153129615000,2.501614990234375,0.9110726421445607,-0.9243114784240722,0.023971242696046828
1681265153139549000,2.511548828125,1.299728260859847,-1.1543629275918006,-0.11799947969764471
1681265153149482000,2.52148193359375,1.6335568953663109,-1.32480717253685,-0.24152575999274847
1681265153159415000,2.5314150390625,1.731184325903654,-1.45775404599756,-0.24181992063373325
1681265153169348000,2.54134814453125,1.3855132779121397,-1.5114602094829082,-0.11696816388852893
1681265153179282000,2.551281982421875,0.8427449558496475,-1.4048814107269048,-0.044482188870385284
1681265153189215000,2.561215087890625,0.21152327430844306,-1.2455062568068505,-0.05015804254971444
1681265153199148000,2.57114794921875,-0.010940496209263802,-1.1694511911302805,-0.04374503370225429
1681265153209082000,2.58108203125,0.05353635987639427,-1.1318965365007518,-0.07049823526702821
1681265153219015200,2.59101513671875,0.03360942413508892,-1.1316115820795296,-0.17432926968485116
1681265153228948200,2.6009482421875,0.1162239944577217,-1.0888397773236036,-0.2455210401739925
1681265153238882000,2.610882080078125,0.13425883284211157,-0.9447516243845224,-0.03811601483933627
1681265153248815000,2.620815185546875,0.16369184807538986,-0.954013958248496,0.18117661482896655
1681265153258748200,2.630748046875,0.40723698506653305,-1.0211980274662376,0.24769173527657984
1681265153268682000,2.640681884765625,0.3372369816452265,-0.9736498020887374,0.360638023237884
1681265153278615000,2.650614990234375,0.12466507506668567,-0.815815155608952,0.2863125943655148
1681265153288548000,2.660548095703125,0.16853987262845038,-0.6219511643707751,0.05998597440719604
1681265153298482000,2.67048193359375,0.3242319541215896,-0.20084318260103462,-0.20856986786294726
1681265153308415000,2.6804150390625,0.45971828293204303,0.1616433911129832,-0.14278985675685107
1681265153318348000,2.69034814453125,-0.052446226552128786,0.1670811982527375,0.3695516897946596
1681265153328282000,2.7002822265625,-0.684043171146512,-0.026549861012399194,0.7189858166467398
1681265153338215200,2.710215087890625,-0.9456295762628316,-0.30736206786334513,0.667523851891607
1681265153348148200,2.720148193359375,-1.259899523818493,-0.7516866745695472,0.41354762951806184
1681265153358082000,2.73008203125,-0.7454413504391908,-0.7106956157505512,0.2762698872461915
1681265153368015000,2.74001513671875,-0.24411387678980825,-0.43342502702921626,0.3162241503633559
1681265153377948200,2.7499482421875,-0.26758476874828335,-0.32612288243472576,0.2908591882865876
1681265153387882000,2.759882080078125,-0.508022002851963,-0.11150047306716442,0.305697787912935
1681265153397815000,2.76981494140625,-0.7387877377688884,0.11609013894498348,0.2222548770073801
1681265153407748000,2.779748046875,-0.7124824991673231,0.5242506685972214,0.05842763904929161
1681265153417682000,2.789681884765625,-0.4236345776379108,1.238948651856929,-0.0008571282859891653
1681265153427615200,2.799615234375,-0.5698346081644297,1.0619497245714067,0.049521717407554386
1681265153437548300,2.80954833984375,-0.9565122048050164,1.5400031440086661,-0.15961773050427436
1681265153447482000,2.819482177734375,-1.0161235006809235,1.578142612788826,-0.20132066391967235
1681265153457415200,2.829415283203125,-1.4325462472438812,0.9281827668994664,-0.07686250960193573
1681265153467348200,2.83934814453125,-1.5432622919350862,1.2055536011248826,-0.07113909045383333
1681265153477282000,2.849281982421875,-0.6797790839612483,1.7377433921582996,0.2438103637985885
1681265153487215000,2.859215087890625,0.7919576024204492,2.233014488378167,0.5316458934150636
1681265153497148200,2.869148193359375,2.0843477754771707,2.668784324967861,0.6363678122580051
1681265153507081000,2.8790810546875,1.1667635594815016,2.8411458017110824,0.48405733602717516
1681265153517015000,2.88901513671875,-1.4160451942980288,3.3758515210881828,0.10940481596216559
1681265153526948000,2.898947998046875,0.976828432124853,6.352400357240438,0.6220441033512354
1681265153536881000,2.908880859375,3.3085026166975497,7.7124501080721615,1.020784770490229
1681265153546815200,2.918815185546875,3.289820128059387,7.109684121164679,0.736651310262084
1681265153556748000,2.928748046875,5.069587575346231,6.625394876077771,0.025322949565947054
1681265153566681000,2.93868115234375,6.824974614614248,6.880909267804026,-0.9502268409252166
1681265153576615200,2.948615234375,8.350878359991311,6.645940235978364,-2.050575854256749
1681265153586548000,2.9585478515625,9.671297526702284,3.865171161557734,-2.871266214686632
1681265153596481000,2.96848095703125,10.286993722331523,2.2516168975174424,-2.3480396284401417
1681265153606415000,2.9784150390625,9.219435802489519,3.6643066439077256,-1.2977332876503467
1681265153616348000,2.988347900390625,7.520422976872324,5.885149925237894,-1.5186679489046335
1681265153626282000,2.998281982421875,6.27822686752677,7.423100666761398,-2.4495108749240635
1681265153636215800,3.0082158203125,5.465656685188413,8.69191648748517,-2.91328866237998
1681265153646148900,3.01814892578125,4.3654935498178,9.870873758107424,-2.7706811033874748
1681265153656082000,3.02808203125,2.638668588167429,10.047377156960964,-2.5790064388871192
1681265153666015700,3.038015625,-0.5767129695013166,9.022685734421014,-2.2796295245587825
1681265153675948800,3.04794873046875,-1.6557324868172407,7.527488092952966,-0.9782382989227771
1681265153685881900,3.0578818359375,-1.976579328545183,6.05502192325294,0.7639531586855649
1681265153695816000,3.06781591796875,-4.585040556105971,4.53979797732234,2.5359745218902825
1681265153705749000,3.0777490234375,-6.689687607768177,2.6963670361593364,4.404305803292989
1681265153715682000,3.08768212890625,-8.158777579033375,0.749156644635275,6.080160456162691
1681265153725615900,3.097615966796875,-8.459959496957064,-1.4969905162341892,7.9314996862322085
1681265153735549000,3.107548828125,-8.055659149864315,-4.416270381852984,10.009649776113033
1681265153745482000,3.11748193359375,-7.119763032108545,-7.51869688373208,11.435352441072464
1681265153755415000,3.1274150390625,-5.3220554389834405,-9.801075999259949,11.614356424570083
1681265153765348900,3.137348876953125,-3.1447213367730376,-10.988773041176795,11.260101088106632
1681265153775282000,3.147281982421875,-1.4317811080902814,-11.317164453065395,10.796834757304191
1681265153785215000,3.157215087890625,0.17317279312610626,-11.286577591621874,10.459088657093048
1681265153795148800,3.167148681640625,1.4820575893878936,-10.763601180744171,9.811548293435573
1681265153805082000,3.17708203125,3.034633068591356,-9.754807584559916,9.553844867232442
1681265153815015200,3.18701513671875,4.373005240622162,-8.863753063571453,9.296705504652857
1681265153824949000,3.196948974609375,5.118727161568403,-8.364690612244605,9.095798316904903
1681265153834882000,3.206882080078125,5.623467658531665,-8.330165826830267,8.938725594708323
1681265153844815000,3.216815185546875,5.577418439540267,-7.987216897279024,8.284101994791627
1681265153854749000,3.2267490234375,5.406320114600658,-6.302406200015544,6.932101110380888
1681265153864682000,3.236681884765625,9.46967956033647,-2.8397479176118967,3.365532079386711
1681265153874615000,3.246614990234375,10.888776543420553,-2.0090008580699563,-0.19339082076847552
1681265153884548900,3.256548828125,8.945058304861188,-3.7659380493894217,-1.5695827281057835
1681265153894482000,3.26648193359375,8.246421960216761,-3.0105642107397315,-1.9817174220860003
1681265153904415000,3.2764150390625,7.17113432290554,-1.549231575603038,-3.011528087335825
1681265153914349000,3.28634912109375,4.166835602301359,-1.3406915548890828,-4.313398620921373
1681265153924282000,3.2962822265625,0.2058703631132841,0.5727776758790016,-5.424989743757248
1681265153934215200,3.306215087890625,-2.587419462445378,3.3190918152511117,-6.379660120087862
1681265153944149000,3.31614892578125,-2.648069453719258,3.9692128430515528,-7.768779898059368
1681265153954082000,3.32608203125,-0.4702554590374231,3.1887977943867445,-8.162794997981191
1681265153964015000,3.33601513671875,1.8890344622135162,2.5733058891579508,-6.165151692488789
1681265153973949000,3.345948974609375,2.5890397571235892,1.8619699296772478,-3.430814991158247
1681265153983882000,3.355882080078125,2.2588836736500264,1.9540677831381559,-0.07801847470402717
1681265153993815000,3.36581494140625,1.6634031675755976,2.8466528746947644,2.979479921168089
1681265154003747800,3.375747802734375,-1.435258428812027,2.6654092955768105,4.253405047729611
1681265154013682000,3.385681884765625,-5.949091943794489,3.7400647724643346,6.570137099236249
1681265154023615000,3.395614990234375,-9.238615134733914,6.438256101441383,8.180188615852593
1681265154033547800,3.4055478515625,-5.518817197489738,5.408675737816095,7.257695000505447
1681265154043482000,3.415482177734375,0.7878210140723735,2.383037584324181,5.646020851123333
1681265154053415200,3.425415283203125,3.5075533629238604,1.9799381374537943,5.5978603390663855
1681265154063348000,3.435347900390625,2.4649954443037507,3.892445829713344,6.20590046698451
1681265154073282000,3.445281982421875,0.700861619478464,5.848337905669212,6.677801939663291
1681265154083215000,3.455215087890625,-0.2336240469574928,6.358471201586723,8.303394139760732
1681265154093148000,3.46514794921875,1.044737016224861,5.3893865154564375,9.03681070588529
1681265154103082000,3.47508203125,5.306942625525593,2.4986890395909547,7.858349694347381
1681265154113015000,3.48501513671875,8.719732715171576,-1.1440768036380409,5.278175965246558
1681265154122947800,3.49494775390625,5.394684621864557,-1.671276969690621,4.299433808454871
1681265154132882000,3.5048818359375,-0.40084523820281026,2.3196043920725584,5.792012207335233
1681265154142815000,3.51481494140625,-1.0185001666843891,3.008353548952937,7.384968212243914
1681265154152747800,3.524747802734375,0.5943132158607244,0.9942790408805012,7.2738213749200105
1681265154162682000,3.53468212890625,-0.7054341880910098,-1.083119061589241,7.782151420807838
1681265154172615200,3.544615234375,1.7822990115910768,-5.173223306387663,8.206551722121239
1681265154182548000,3.5545478515625,-3.5551287685692308,-5.103081264147162,9.665427757886052
1681265154192482000,3.56448193359375,-0.8352852874934673,-8.075066445645689,6.6460507106155156
1681265154202415000,3.5744150390625,-3.8427632226556536,-8.750644570785761,3.0364117687016723
1681265154212348000,3.584347900390625,-1.6509978595107793,-10.391307498764991,-2.9058032750606535
1681265154222282000,3.594281982421875,-2.1939885921522975,-11.022995628774165,-6.413700921377539
1681265154232215000,3.604215087890625,1.3374522807069122,-12.144506088078021,-8.519755501750112
1681265154242147800,3.61414794921875,5.08245699379146,-13.049627712863684,-9.649816931778192
1681265154252082000,3.62408203125,7.436631763985752,-13.138399052250385,-10.978382580065727
1681265154262015000,3.634014892578125,7.915061177128553,-13.370456580543518,-10.552457845664025
1681265154271947800,3.64394775390625,8.280293834680318,-13.330384097874164,-7.384988670510054
1681265154281882000,3.653882080078125,7.52173698208034,-12.860215732598304,-4.252562751686573
1681265154291815200,3.663815185546875,5.413114012524486,-11.583470287919043,-1.797358633556962
1681265154301748000,3.673748046875,3.694357206517458,-7.732612021613121,-0.3793406778812408
1681265154311682000,3.68368212890625,3.53088513867259,-5.678893193155527,-0.40308395704030986
1681265154321615000,3.693614990234375,4.649844744449854,-8.049749633559584,-1.3963777862757443
1681265154331548000,3.7035478515625,4.977463418400287,-10.561363621175289,-0.9186042066931724
1681265154341481000,3.71348095703125,3.889243818801641,-6.45364714731872,2.3742934291154145
1681265154351415000,3.7234150390625,-1.439814192420244,-1.6318439539685845,2.372189150312543
1681265154361347800,3.733347900390625,-3.66035439915061,3.6713679605960845,2.694009367117286
1681265154371281000,3.743281005859375,-5.679865837579965,4.876401629500091,2.2198931409984826
1681265154381215000,3.753215087890625,-4.77710100505352,6.862003491804003,0.8715981253683567
1681265154391147800,3.763147705078125,0.2415501637816429,11.021817232644556,-0.5845043540298939
1681265154401080800,3.773080810546875,5.014585234570503,12.114302672994135,-2.3613117824673653
1681265154411015000,3.783014892578125,6.687751086747646,9.838362650603056,-3.42900005069077
1681265154420948000,3.792947998046875,5.295847815537452,8.12752553167939,-3.6232530412465334
1681265154430881000,3.802881103515625,3.2243992691218852,10.270110392069816,-0.9039894058853387
1681265154440814800,3.81281494140625,0.9661913027763366,11.898976499271392,1.741799827942252
1681265154450748000,3.822747802734375,0.35219694262892004,10.112588757061959,3.16842194583416
1681265154460681000,3.832680908203125,1.2949784359842538,7.71565971776843,5.016771346437931
1681265154470614800,3.84261474609375,-0.02487169866710901,5.23507215205729,5.5952726606607435
1681265154480547800,3.8525478515625,-1.4616571909159422,2.4600340225040913,6.724636756074428
1681265154490481000,3.86248095703125,-0.9397957555428147,-0.9299152897804975,7.672474071514606
1681265154500415000,3.8724150390625,-1.6564169619500637,-3.408219712990522,8.014253372764587
1681265154510348000,3.88234814453125,-3.04471548666656,-3.3918519310355184,7.421035550925136
1681265154520281000,3.892281005859375,-2.1276424350634215,-2.8083699057906863,6.615415918377042
1681265154530215000,3.90221484375,-0.1459042624503374,-3.2625299700737,4.994240365678071
1681265154540148000,3.91214794921875,-1.2221814953207968,-0.9921949280828237,1.949966193038225
1681265154550081000,3.9220810546875,-4.5125849762260914,0.5858347258508205,-2.6928303864657877
1681265154560014800,3.932014892578125,-3.0453666440516707,-0.6684259152978659,-5.993699147284031
1681265154569948000,3.941947998046875,2.1051339583963156,-4.1144665326386685,-8.594565535801648
1681265154579881000,3.951880859375,0.37254268830418585,-3.3247949953287836,-8.457016429242492
1681265154589814800,3.961814697265625,0.46241672823578117,-3.2171248942047357,-7.867038027715682
1681265154599747800,3.971747802734375,0.679070935691893,-3.7957717543780802,-6.6906970770716665
1681265154609681000,3.981680908203125,-1.6713114564821123,-2.477066990369558,-4.997649881860614
1681265154619615000,3.991614990234375,1.7562956785455346,-1.6980647311121224,-2.944307485499978
1681265154629547300,4.00154736328125,6.340974123340844,-2.208282782703638,-1.2410118679970503
1681265154639480300,4.011480224609375,10.335666860085725,2.8047178130239248,3.1652871549397705
1681265154649414700,4.02141455078125,11.078100845402478,3.2375767306029797,8.511170628756284
1681265154659347500,4.031347412109375,4.021536612267792,-2.6986124769985675,12.687328186154366
1681265154669280500,4.041280517578125,3.230908504885435,-5.874819669881463,15.314847603797912
1681265154679213600,4.051213623046875,5.450508800417184,-6.57701925996542,15.935837814182042
1681265154689147400,4.0611474609375,6.82340341977477,-4.584710885760188,13.263351127564906
1681265154699080400,4.07108056640625,5.679169087487459,-2.903912931269407,10.077043980950117
1681265154709013500,4.081013427734375,0.605643880431354,-3.8295290625512597,7.035639810788631
1681265154718947300,4.090947265625,-3.112935620933771,-4.620903312125802,3.449320661924779
1681265154728880400,4.10088037109375,-4.961737441480159,-4.127227814534306,0.8619146434828638
1681265154738813400,4.1108134765625,-5.0414218035697935,-5.075077404934167,-1.338852356763184
1681265154748747300,4.120747314453125,-3.4674037233650683,-5.801506011867523,-3.352411316528916
1681265154758680300,4.130680419921875,-3.145413995212316,-5.250673041293025,-4.529485257622599
1681265154768613400,4.14061328125,-3.4103789368510244,-4.948117496928572,-5.36470800127387
1681265154778547500,4.15054736328125,-4.153399782145023,-4.309532593142986,-5.472570994621515
1681265154788480500,4.16048046875,-12.089963181507587,-2.0178993270576,-4.542382733118534
1681265154798413600,4.17041357421875,-20.93931830189228,1.0441770442545413,-3.1821690238967535
1681265154808347400,4.180347412109375,-9.033087301447987,-0.42547874419987197,-2.6983587944984433
1681265154818280400,4.190280517578125,-0.21964564435705541,-1.1868266888231038,-4.102553392004967
1681265154828213500,4.200213623046875,2.016087455330044,-1.0338339294165373,-4.419809661895036
1681265154838147300,4.210147216796875,2.8119337357521057,1.5431453875571488,-2.9966975979506967
1681265154848080400,4.220080322265625,0.22940496795773505,7.7890441029310225,1.7242855063006282
1681265154858013400,4.230013427734375,-3.583420212551951,10.233935501360893,6.020012569192051
1681265154867947300,4.239947265625,-6.163479375362396,3.9696886438697576,6.387270595091581
1681265154877880300,4.24988037109375,-6.012113924896717,-0.5879910271018743,5.763510919994116
1681265154887813400,4.2598134765625,-4.489335033541917,-2.5463509544759986,4.795560498590767
1681265154897747500,4.26974755859375,-4.07886038172841,-3.0768782191246746,4.085525684836506
1681265154907680500,4.279680419921875,-3.6163445770323275,-3.01345817861557,3.007161416558921
1681265154917613600,4.289613525390625,-2.2448849589139224,-3.4000784921109672,1.491102188847959
1681265154927547400,4.29954736328125,-0.4487579129785299,-3.32659240013957,-0.20154665469527244
1681265154937480400,4.30948046875,2.1869150005042552,-2.291836679702997,-2.3757155708730218
1681265154947413500,4.31941357421875,4.191870674836635,-2.019979055941105,-3.7782825671777127
1681265154957347300,4.329347412109375,5.364100683030486,-1.7023142052501439,-4.150232550285756
1681265154967280400,4.3392802734375,5.63936782297492,-1.1484376291960476,-3.5151916027173398
1681265154977213400,4.34921337890625,4.421379103168845,-1.3862375005334615,-2.598918177059293
1681265154987147300,4.359147216796875,3.2650141881048675,-2.083483852124214,-2.1185276929765937
1681265154997080300,4.369080322265625,2.5947803466022012,-2.1428689380288124,-2.1583896016351876
1681265155007013400,4.379013427734375,1.794375379962474,-1.7281132478952408,-2.387666413168609
1681265155016946400,4.388946533203125,0.3217588420063257,-1.4443161800146103,-2.3624670899823306
1681265155026880500,4.398880615234375,-1.8815667566813528,-0.8443313482582568,-2.2850194009035825
1681265155036813600,4.4088134765625,-3.7592975884616373,-0.7363333303540944,-1.836311172285676
1681265155046746400,4.418746337890625,-5.377514291355014,-0.6454489443361758,-1.0227361968189477
1681265155056680400,4.428680419921875,-5.858672837200761,0.5043325006842613,-0.5941422432079911
1681265155066613500,4.438613525390625,-5.32267152505517,1.6986498375236987,-0.33053836078941823
1681265155076546300,4.44854638671875,-4.383184397070109,2.69627672752738,-0.0646904257711023
1681265155086480400,4.45848046875,-3.1211832247972486,3.519120466598868,0.15349661727547645
1681265155096413400,4.468413330078125,-1.7931456920370459,3.9828310340374706,0.32324257775805887
1681265155106346500,4.478346435546875,-0.5466413641035557,3.9466906301200386,0.43817222155630586
1681265155116280300,4.4882802734375,0.5373033346548676,3.8314819501847026,0.8102375746723264
1681265155126213400,4.49821337890625,1.1898097962871192,3.7753549892932172,1.2783674929231406
1681265155136146400,4.508146484375,1.9774653175994752,3.777502522715926,1.8654700467526912
1681265155146080500,4.51808056640625,8.988706892451644,3.1883219935685396,2.8798823596015573
1681265155156013600,4.528013671875,17.319370731931922,3.4320056622475383,5.634470114061236
1681265155165946400,4.5379462890625,11.97938333041668,5.135044674640894,9.34235607971549
1681265155175880400,4.54788037109375,5.337005170834064,5.497274643245339,10.52264606024623
1681265155185813500,4.5578134765625,4.097630548650026,3.9919244410753247,8.597391114616393
1681265155195746300,4.567746337890625,6.76105714597702,2.3247090217351913,6.269414615517855
1681265155205680400,4.577680419921875,9.165918731835484,0.7132546525835991,4.352062990358472
1681265155215613400,4.587613525390625,9.689501876434683,-0.5826672017306089,3.2269232346415517
1681265155225546200,4.597546142578125,7.06566786930561,-1.0326771605968474,3.2443747201800344
1681265155235480300,4.607480224609375,3.6982372628211975,-0.7451496740162372,3.724772803047299
1681265155245413400,4.617413330078125,1.2918939139723777,-0.7096428918272256,4.458646757550538
1681265155255346400,4.627346435546875,-0.6344342869121581,-1.2427882300198076,5.529217010951042
1681265155265280500,4.637280517578125,-2.1987790412992236,-2.5549510250389575,6.75534987424612
1681265155275213600,4.647213623046875,-1.3691706303983926,-4.063118622717261,6.354605758330226
1681265155285146400,4.657146484375,0.947393078804016,-5.1058419610321515,4.903822428128123
1681265155295079400,4.667079345703125,2.5842764882445333,-5.318873301815986,3.427129580643773
1681265155305013500,4.677013427734375,2.608905902588367,-5.101119024163484,2.9114260833784935
1681265155314946300,4.6869462890625,1.0148222088240086,-5.14909541182518,4.498586846011877
1681265155324879400,4.69687939453125,-1.8814533594347536,-4.923939333483577,7.716701335775852
1681265155334813400,4.7068134765625,-3.680300624114275,-3.6473131312698124,10.51794416616559
1681265155344746200,4.716746337890625,-2.176038071050495,-1.0812789866805077,10.964884800589084
1681265155354679300,4.72667919921875,0.768107209625095,2.109095847764611,10.163485416084526
1681265155364613600,4.736613525390625,2.787068466825783,4.720906824144721,9.50252326079607
1681265155374546400,4.74654638671875,2.2356956902861596,7.365078101381659,8.964697655832767
1681265155384479500,4.7564794921875,0.7400535199210048,9.444803477755189,8.153630279272795
1681265155394413600,4.76641357421875,-0.22054887680709362,10.402104787111282,6.812371738150715
1681265155404346400,4.776346435546875,-0.8673518661007285,10.669895307564735,5.448471157109737
1681265155414279400,4.786279541015625,-1.1168863066345454,11.060858618700504,4.6104158203810455
1681265155424213500,4.796213623046875,-1.8684128222063183,11.226142704403399,4.17418187341094
1681265155434146300,4.806146240234375,-3.184014067241549,10.836011752438544,3.8298037878394124
1681265155444079400,4.816079345703125,-4.043809526613354,9.786498607853055,3.322612390592694
1681265155454013400,4.826013427734375,-3.9048739341318606,8.334685934603213,2.504372345924377
1681265155463946200,4.8359462890625,-3.4514106199413535,7.001332467517257,1.4409814826339482
1681265155473879300,4.84587939453125,-3.455962291896343,5.861796522179246,0.339639951133728
1681265155483813600,4.855813720703125,-3.5990453594461083,4.694736025577783,-0.6052414371103048
1681265155493746400,4.865746337890625,-4.076305436548591,3.398508466315269,-1.4668652809530496
1681265155503679500,4.875679443359375,-4.887094580689072,1.9984370862185954,-2.275860819675028
1681265155513613600,4.885613525390625,-5.658301071503758,0.3600444412589073,-3.1583719687238334
1681265155523546400,4.89554638671875,-5.971154137998819,-1.4705805020838976,-4.138339575657248
1681265155533479400,4.9054794921875,-5.900940199565887,-3.2241730591505764,-5.081505976676941
1681265155543412500,4.91541259765625,-6.127765672424435,-4.960203656041622,-6.034280163997411
1681265155553346300,4.92534619140625,-5.85339577358067,-6.611980683231353,-6.969157460099458
1681265155563279400,4.935279296875,-4.820992169228196,-7.993067961394786,-7.655695955193043
1681265155573212400,4.94521240234375,-3.288682648462057,-9.647935940337181,-7.789922054809331
1681265155583146200,4.955146240234375,-1.2340914210841059,-11.5009696993649,-7.375691265332699
1681265155593079300,4.965079345703125,1.2387635045483707,-13.024391564798353,-6.3253755721926685
1681265155603012400,4.975012451171875,3.5511049198806286,-14.491038819086551,-4.647252682130039
1681265155612946400,4.984946533203125,5.733852279311418,-15.812723475688696,-2.7676515264332293
1681265155622879500,4.99487939453125,7.22430477207899,-16.514265478646756,-0.7954094964399934
1681265155632815900,5.00481591796875,6.625104368698596,-15.475281326860188,1.4521426358565688
1681265155642749700,5.014749755859375,3.194283824582398,-11.371623188483714,2.504969727295637
1681265155652682800,5.024682861328125,-2.6322385551199314,-6.386957291358709,2.2938722771838305
1681265155662615800,5.03461572265625,-8.47885942773819,-3.7574674504250285,1.624398021876812
1681265155672549600,5.044549560546875,-11.089050109440088,-3.105951168873906,0.028260464322566986
1681265155682482700,5.054482666015625,-11.324172870522737,-2.588853294640779,-1.9990274533271788
1681265155692415700,5.064415771484375,-8.449779463726282,-1.3140601530730724,-4.278596187609434
1681265155702349800,5.074349853515625,8.826893113207817,2.798592608141899,-8.00371268952787
1681265155712283000,5.084282958984375,17.914025893098113,6.774152189871669,-6.438606814575195
1681265155722216000,5.0942158203125,-2.869512941278517,9.20391791536212,-2.4408652116537093
1681265155732149800,5.104149658203125,-10.029800583738089,12.396541405516862,-2.5114707797527314
1681265155742082800,5.114082763671875,-10.409313111054896,13.131985678076743,-3.5354727587237953
1681265155752016000,5.124015869140625,-13.08225221761465,9.34334567527473,-4.1586020269632336
1681265155761949000,5.133948974609375,-11.824626483947037,4.8663130739450455,-4.354126937150955
1681265155771882800,5.1438828125,-6.446694259440899,1.3163818740189075,-5.144502238816022
1681265155781815800,5.15381591796875,-0.1122550908267498,-1.454152514374256,-6.448197649741172
1681265155791748900,5.163748779296875,-2.3930258943751452,-0.8009931417912244,-6.3026844324350355
1681265155801682700,5.1736826171875,-4.639678739744425,2.036458481577039,-5.473809011983871
1681265155811615700,5.18361572265625,-3.019291707074642,4.778066635215282,-3.934685719549656
1681265155821548800,5.193548828125,-1.4955378332078455,6.13566548576355,-1.223454876257479
1681265155831483000,5.20348291015625,0.1448106219947338,7.508330972540378,2.3978294952645895
1681265155841416000,5.213416015625,-1.6061685377031565,9.810238964402675,5.362534748888016
1681265155851349000,5.223348876953125,-5.5737517337262625,11.497177321344614,5.7366077154994
1681265155861282800,5.23328271484375,-6.186589617314934,12.989452353364229,5.718029271757603
1681265155871215900,5.2432158203125,-4.443877935224771,14.716294850671291,7.5758970268130295
1681265155881149000,5.25314892578125,-0.5903226849198341,15.965186658263205,10.33711296724081
1681265155891082800,5.263082763671875,3.8105543129682538,16.760197218513486,12.634476885932683
1681265155901015800,5.273015869140625,7.018472402888536,16.63112894005179,13.59867263097763
1681265155910948900,5.282948974609375,9.852385330736636,14.608653975641726,12.952125954532622
1681265155920882700,5.292882568359375,11.089186887562274,9.850697231519222,11.381228052175045
1681265155930815700,5.302815673828125,9.917065015918016,4.474132788234948,10.22383262501955
1681265155940748800,5.312748779296875,8.626785551404952,-0.14744564667344093,8.805250605720282
1681265155950683000,5.322682861328125,8.158907927414774,-3.3535932197898624,7.3214488030135625
1681265155960616000,5.332615966796875,6.997118064692616,-4.189057955503464,6.750304281294346
1681265155970549000,5.342549072265625,5.443858110356331,-3.73478624753952,6.56463499468863
1681265155980482800,5.35248291015625,4.480203340320289,-4.332019150239229,6.0639019798010585
1681265155990416000,5.362415771484375,3.3637408120557666,-5.911396127128601,5.677589124819636
1681265156000349000,5.372348876953125,2.619921217599511,-8.09138337419629,5.534289491909742
1681265156010281700,5.38228173828125,3.3921298711940646,-11.200493883883953,5.873588082259893
1681265156020215800,5.3922158203125,6.127835815051197,-15.037045392417907,6.266970144975185
1681265156030148900,5.40214892578125,7.287189975059032,-15.122202048438787,4.840445642238855
1681265156040081700,5.41208154296875,6.320273865139484,-14.020076673084496,3.8977310766398903
1681265156050015700,5.422015625,4.975688809943199,-14.36860369502902,4.100965830552577
1681265156059948800,5.43194873046875,4.354237996309996,-14.975095424461363,3.5825223869293925
1681265156069881900,5.4418818359375,3.530441486558318,-14.219360059022902,2.0001817379288376
1681265156079816000,5.45181591796875,2.893680291068554,-12.754295690011977,0.27344840008467436
1681265156089748700,5.461748779296875,2.6925252660393713,-11.61232696456909,-0.8680945011615753
1681265156099681800,5.471681884765625,2.5739298662751913,-10.64103395473957,-1.3623798012144863
1681265156109615900,5.481615966796875,2.0628671805530785,-9.831934078860282,-0.9934642173662781
1681265156119548700,5.491548583984375,1.9524632705509661,-9.0104785792768,-0.29918022271245714
1681265156129481700,5.501481689453125,1.85706111484766,-7.986382200020551,0.44885406682938334
1681265156139414800,5.511414794921875,1.7276397851645946,-6.300085063591599,1.0088549709826706
1681265156149348600,5.5213486328125,-0.4180770896412432,-3.003542933800816,3.0080297238260507
1681265156159281700,5.53128173828125,-3.2945281596198677,4.143449466016889,7.237630702120065
1681265156169214700,5.541214599609375,-3.7861902715623375,14.687877734482287,13.24169108442068
1681265156179148800,5.551148681640625,-2.075238586348295,27.48783861260414,20.494578976905345
1681265156189081900,5.561081787109375,3.4631530801832673,43.30144705443382,29.09549125138521
1681265156199015000,5.571014892578125,6.5324167326509945,51.532347620391846,34.447881038355824
1681265156208948700,5.58094873046875,10.306687433838844,39.804780996227265,26.844179474294183
1681265156218881800,5.5908818359375,11.67322245503664,17.39535974663496,13.986154529738425
1681265156228814800,5.60081494140625,7.8994041737914085,8.259038865205644,6.924609293320775
1681265156238748700,5.610748779296875,4.130920531572401,5.247395042535662,3.1340859609901903
1681265156248681700,5.620681640625,-0.20448475397378205,4.378830585774779,1.030327967122197
1681265156258614800,5.63061474609375,-5.047207401233911,4.360312347787619,-0.3311386647701263
1681265156268548600,5.640548583984375,-9.886673384785652,4.028603189653158,-1.4153379228115082
1681265156278481700,5.650481689453125,-13.942032479417323,2.731352717083692,-2.4655261901795864
1681265156288414700,5.660414794921875,-16.53068703661561,0.5315735588312148,-3.495435639628768
1681265156298348800,5.670348876953125,-16.42514342612624,-2.0733803912609816,-4.4466813022077085
1681265156308281900,5.68028173828125,-14.764957467031477,-4.131750260394812,-5.384083148351311
1681265156318215000,5.69021484375,-14.495144500839709,-5.90138268263638,-5.9155059005349875
1681265156328148000,5.70014794921875,-15.193973153185844,-7.4672648026585575,-6.392318526130914
1681265156338081800,5.710081787109375,-14.38178700172901,-8.34763426350355,-7.063335042443871
1681265156348014800,5.720014892578125,-8.768682916301488,-10.175632949995993,-8.943834900546074
1681265156357948000,5.729947998046875,3.467757943630218,-14.125714976119994,-12.120196991729735
1681265156367881700,5.7398818359375,7.839207771503925,-17.40382362359762,-13.31247084004283
1681265156377814800,5.749814697265625,4.664872509972751,-19.011395598357915,-12.176962250524758
1681265156387747800,5.759747802734375,4.715837265795469,-19.898981566452978,-11.143737977439164
1681265156397681700,5.769681640625,8.0640990614295,-20.728450861144065,-9.906825361454485
1681265156407614700,5.77961474609375,18.394508731639384,-22.56132913637161,-7.468581730476021
1681265156417547800,5.7895478515625,18.278188875591752,-19.033157348310947,-1.2262233180575073
1681265156427480600,5.79948046875,12.165225050979853,-9.865791924798488,3.9529599196478724
1681265156437415000,5.809414794921875,5.349087238293886,-6.064316405820846,6.634007221600413
1681265156447348000,5.819347900390625,-14.516436295193433,-6.400669590368866,5.220008438438176
1681265156457280800,5.82928076171875,-22.19864733234644,-8.106582112371921,0.7389817990362644
1681265156467214800,5.83921484375,-18.085213649886846,-7.249041738450527,-0.7829398909673094
1681265156477148000,5.84914794921875,-9.86157518388629,-5.473993720901012,-2.056614842160046
1681265156487080700,5.859080810546875,-1.0498271789707243,-3.841691794031858,-4.64466646502912
1681265156497014800,5.869014892578125,13.982961871176958,1.2796762374341488,-9.040925155466795
1681265156506947800,5.87894775390625,11.418838528645038,3.7090871581375597,-10.724309619319438
1681265156516880600,5.888880615234375,-8.457316288971901,-2.0701965005278584,-8.397008827525378
1681265156526814700,5.898814697265625,-12.484562218797207,-1.8007926996588706,-8.49254659230709
1681265156536747800,5.908747802734375,-11.543729813683033,1.0747925472706557,-9.360855613002181
1681265156546680600,5.9186806640625,-9.416874437344074,3.6556045742750167,-10.117730211603641
1681265156556615000,5.928614990234375,-7.1766171382308,6.510166906920075,-10.189095658159255
1681265156566548000,5.9385478515625,-5.265355646640062,9.94732688319087,-9.701044430190324
1681265156576480800,5.948480712890625,-2.6751462612152097,15.166818604278564,-9.15300079807341
1681265156586413800,5.958413818359375,-0.3517397003807127,21.28551892671585,-6.445221848800778
1681265156596348000,5.968347900390625,1.9109749297343193,27.53946358590126,-1.0734117604367435
1681265156606280700,5.97828076171875,0.5913181256979704,32.62730344177484,5.100984584128857
1681265156616213800,5.9882138671875,-4.786280336809158,35.28043894671202,10.13151557585001
1681265156626147800,5.99814794921875,-8.372734802490472,35.15102346224785,14.390491701710223
1681265156636081200,6.0080810546875,-4.301831517246366,29.564492910969257,16.315474260139464
1681265156646014200,6.01801416015625,5.4273664097607135,17.8961173114419,13.47602941712737
1681265156655948300,6.0279482421875,10.659437041914462,8.884854888311027,10.486003552025556
1681265156665881000,6.037881103515625,10.96403139863014,3.7472237043082712,9.710110949221253
1681265156675814100,6.047814208984375,11.427372548234462,0.28825287824571133,8.720254693219065
1681265156685748200,6.057748291015625,9.511292842707038,-0.49021220539510246,7.986654002699256
1681265156695681000,6.067680908203125,6.090972942078113,0.6100725105285644,8.50483674955964
1681265156705614300,6.0776142578125,3.575774081712961,-0.22333061648011207,8.766334307348728
1681265156715547400,6.08754736328125,2.2626468255758283,-2.4251029943764206,8.79954567207694
1681265156725481200,6.097481201171875,2.0295114389181137,-4.625308853608369,8.51276169734001
1681265156735414300,6.107414306640625,1.8923352573245762,-7.133409280145168,8.60386937071979
1681265156745347300,6.117347412109375,3.147877170455456,-11.57761922380328,9.902314021509886
1681265156755281200,6.12728125,6.794508749201894,-13.417155203354358,8.32961812981963
1681265156765214200,6.137214111328125,9.891458280974627,-13.372237034219502,6.180932029944658
1681265156775147300,6.147147216796875,10.704909337800741,-14.895436781334876,6.646382719048857
1681265156785081000,6.1570810546875,9.087340285161137,-16.307267572808264,7.677275334316492
1681265156795014100,6.16701416015625,5.676434694087505,-16.469070246136187,8.195645712703467
1681265156804947200,6.176947265625,1.6791238837987184,-13.85736799082756,6.201714121210575
1681265156814880300,6.18688037109375,0.9676676589392125,-12.35663141993284,3.723812725843489
1681265156824814300,6.196814453125,0.8984358634114264,-11.8111567615211,2.3288509438455103
1681265156834747400,6.206747314453125,0.6475900480180978,-11.39701365032792,1.4915820813193916
1681265156844680200,6.21668017578125,0.5679787511646748,-11.209762062966822,1.1218296082556247
1681265156854614300,6.2266142578125,0.5215571917295455,-11.239195078200101,1.037184116627276
1681265156864547300,6.23654736328125,0.5113385069888084,-11.066561214256286,1.1685200477600097
1681265156874480000,6.246480224609375,0.7711433624505997,-10.362796859073638,1.5509335572153329
1681265156884414200,6.256414306640625,0.7540496043086051,-9.49791722830534,1.9950746240481734
1681265156894347300,6.26634716796875,-1.162995146858692,-7.643494645267724,2.8509724914595482
1681265156904280000,6.276280029296875,-7.905335901927947,-2.619423204949498,4.235286330454051
1681265156914213000,6.286213134765625,-12.810479934048653,3.166196671000123,6.571291529968381
1681265156924147200,6.296147216796875,-14.938160655295848,11.857076801174879,10.706599775105714
1681265156934080000,6.306080078125,-17.524887459301947,23.006318636727332,14.446777652555703
1681265156944013000,6.316012939453125,-16.78693792592287,31.319124747955797,18.105819215542077
1681265156953947400,6.325947509765625,-8.529094407981633,40.159482907414436,22.837048111736774
1681265156963880200,6.335880126953125,5.347542931461334,49.3883353575468,25.761920828926563
1681265156973813200,6.345813232421875,29.2496670830965,54.22420185530186,23.68771450823545
1681265156983747300,6.355747314453125,40.400885771679874,33.013808019936086,10.321570530194043
1681265156993680100,6.36568017578125,24.797153421473503,11.809831065875292,3.2272803775161503
1681265157003613200,6.37561328125,11.471496936643122,5.682127937293052,1.9486399128705263
1681265157013547300,6.38554736328125,1.1246949345588684,3.037710576340556,0.10978957749605178
1681265157023480000,6.39547998046875,-7.851202160680294,1.167911560472846,-1.6545535061657428
1681265157033413000,6.4054130859375,-13.45842478685379,-0.5394646043419837,-3.1314912683218714
1681265157043346200,6.41534619140625,-15.808044962483644,-2.0070698900073767,-4.394796216669678
1681265157053280000,6.425280029296875,-15.063905342292784,-3.760439744234085,-5.224565371090174
1681265157063213000,6.435213134765625,-14.285338551843166,-5.242610146346688,-5.682441825547814
1681265157073146000,6.44514599609375,-15.214274767458438,-6.414067416602372,-6.0879901268750425
1681265157083080200,6.455080078125,-16.493495077818633,-7.378459561002254,-6.639337476712465
1681265157093013200,6.46501318359375,-13.145002980560063,-8.911492135345934,-8.053825504696368
1681265157102946300,6.4749462890625,2.49487386521697,-13.33872756332755,-11.30350300745964
1681265157112880000,6.484880126953125,18.458644811463355,-20.069112507665157,-14.427358666336536
1681265157122813200,6.494813232421875,13.227356269598006,-22.383400673151016,-12.691933049601316
1681265157132746200,6.504746337890625,2.200209366363287,-19.62700820735693,-8.58482740111947
1681265157142679300,6.51467919921875,3.6377719804644584,-19.384287830752132,-6.492520775592327
1681265157152613000,6.524613037109375,8.842679880404472,-20.217737719511984,-4.198886983339488
1681265157162546200,6.534546142578125,9.59746948942542,-18.351604824936388,-0.5657030613176525
1681265157172479200,6.544479248046875,8.484552670943737,-14.331320550817251,2.891708114212751
1681265157182413000,6.5544130859375,3.937508960276842,-9.739279176038503,5.768869232156872
1681265157192346000,6.56434619140625,-12.69843410205841,-10.038485409975051,6.289972250378131
1681265157202279400,6.574279541015625,-18.78719521330595,-10.538469067800044,3.9350326332911845
1681265157212213200,6.584213134765625,-12.896611572581529,-10.195739333957434,2.3003337282828986
1681265157222146300,6.594146240234375,-6.447105762851238,-9.036035045337677,0.8064430777601898
1681265157232079400,6.604079345703125,-0.15548753536436705,-7.417536018371582,-1.1206997274428605
1681265157242012200,6.61401220703125,8.79926510156989,-5.868060258749127,-3.4911686298340556
1681265157251946200,6.6239462890625,11.607839005500077,-4.486764890792966,-5.1830853597104545
1681265157261879300,6.63387939453125,4.990403563994169,-5.019481774440408,-5.500154582595825
1681265157271812000,6.64381201171875,-1.1274643992722033,-6.340102016681432,-5.190696419236064
1681265157281746200,6.65374609375,-5.089113529071212,-4.868687986382842,-5.9615007589906455
1681265157291679200,6.66367919921875,-7.786081161472201,-2.11133632016778,-6.886614785969257
1681265157301612000,6.673612060546875,-9.458124147099255,1.4536428112864495,-7.165411853605509
1681265157311546400,6.68354638671875,-9.720344173943996,7.804016631135344,-7.035490173184871
1681265157321479400,6.6934794921875,-11.29531736291647,17.27206654444337,-6.22854075333774
1681265157331412200,6.703412109375,-14.117165758961438,29.300104307913777,-4.3224855982184405
1681265157341345300,6.71334521484375,-17.469121732938287,40.1073996689558,-1.3675512125030158
1681265157351279400,6.723279296875,-17.726686627453564,45.356340771889684,2.026098853995651
1681265157361212200,6.733212158203125,-12.725932349836826,43.34916274533271,4.92852081605494
1681265157371145200,6.743145263671875,-1.1425393649376927,36.19851240752935,7.442376445117592
1681265157381079300,6.753079345703125,54.80344434328079,25.359505564928053,11.322464897561073
1681265157391012000,6.76301220703125,34.73725678315162,14.981658436238765,11.377787556332349
1681265157400945200,6.772945068359375,0.4127209694355726,9.933120663183926,8.894169244623184
1681265157410879200,6.782879150390625,-3.74700217051208,6.418030475014448,6.116462772643565
1681265157420812000,6.79281201171875,-0.22067454901337621,3.5396132195293903,5.69667844069302
1681265157430745000,6.8027451171875,4.678201070362329,0.13321546126902103,5.437234892824292
1681265157440678100,6.81267822265625,5.734661842128634,-1.7507547032922506,5.651195623412728
1681265157450612200,6.8226123046875,3.8893832272723317,-1.6677192772090434,6.084698684114217
1681265157460545300,6.832545166015625,2.5760557723879813,-2.2370307382822037,6.284643748831749
1681265157470478300,6.842478271484375,0.9289642726659775,-3.739047996637225,7.084846032506227
1681265157480412200,6.852412109375,0.35336890901774165,-5.403267156770825,7.795392595174908
1681265157490345200,6.86234521484375,2.742817529428005,-6.472433096331358,7.563062679681181
1681265157500278300,6.8722783203125,4.709986493940651,-7.529923211145401,6.949916753056645
1681265157510212000,6.882212158203125,6.605137100946902,-8.979939648628234,6.381009781131148
1681265157520145200,6.892145263671875,11.669950301498174,-12.949402082526683,7.763418663287163
1681265157530078200,6.902078125,14.18473181323409,-16.542800668257474,9.064099110305309
1681265157540011300,6.91201123046875,9.170503137016295,-14.542320093512535,8.042848183608054
1681265157549945000,6.921945068359375,4.224709114599228,-13.410386439871788,7.891990098142624
1681265157559878100,6.931878173828125,0.2555773739598691,-12.874293357789515,6.686977179765701
1681265157569811200,6.941811279296875,0.7221668578356504,-12.769042008244991,4.821573768508434
1681265157579745300,6.951745361328125,1.0303391461033373,-11.96276420404911,3.4159815791636703
1681265157589678300,6.96167822265625,0.9039503890492021,-11.649868467456102,2.9405612847089766
1681265157599611400,6.971611328125,0.4700415240257978,-11.957512859392166,2.9995486034676433
1681265157609544200,6.981544189453125,0.0006680354546755552,-12.22580256153941,3.2948750733613967
1681265157619478300,6.991478271484375,-0.2000490365486592,-11.645158390069007,3.794356626883149
1681265157629407500,7.001407470703125,-0.21485618159081785,-10.277910252165794,4.024158777464926
1681265157639340300,7.01134033203125,-0.00806987267639488,-8.79154415192902,4.4136575690060855
1681265157649274400,7.0212744140625,-4.001002066022157,-5.638525526931882,5.092777312275767
1681265157659207400,7.03120751953125,-10.449932706212996,-0.8574526956379414,6.667758684554696
1681265157669140200,7.04114013671875,-15.372412488538027,6.757231450209021,9.503262680986523
1681265157679074300,7.05107421875,-16.01576066120267,15.168805978703498,12.90979487928152
1681265157689007400,7.06100732421875,-15.09863997106552,23.279428306376932,15.949299353301525
1681265157698940200,7.070940185546875,-11.946486438465117,32.28309720563888,19.931789611077306
1681265157708873200,7.080873291015625,-5.481645112437009,41.20981730525494,23.87938858821392
1681265157718807300,7.090807373046875,3.3424253445655108,47.532347424888606,26.851736173284053
1681265157728740400,7.100740234375,31.812610860455035,51.138594970798486,20.301623624944686
1681265157738673400,7.11067333984375,43.97886583900451,29.604888049721716,1.9515993471980093
1681265157748607500,7.120607421875,24.539173516416547,10.797480069470405,-0.3081564331114292
1681265157758540300,7.130540283203125,11.291458349400758,5.471428838849067,-0.3158908267557621
1681265157768473300,7.140473388671875,2.153561012434959,2.596220608538389,-1.5304548328101635
1681265157778407400,7.150407470703125,-6.551799478513002,0.6342682096302509,-2.4488369211852548
1681265157788340200,7.16034033203125,-11.988396657955645,-1.1398510026365518,-3.3713089092224835
1681265157798273300,7.170273193359375,-12.89343878776431,-2.7274878583490847,-4.301816319677234
1681265157808206300,7.180206298828125,-13.5345342130661,-4.121884699940681,-5.081891761124134
1681265157818140200,7.19014013671875,-15.281826793205736,-5.232352371704578,-5.5914867123812435
1681265157828073200,7.2000732421875,-18.23377222623825,-6.278891468915343,-5.967334871971607
1681265157838006300,7.21000634765625,-17.707027987259625,-7.77330760461688,-6.955232395121455
1681265157847940400,7.2199404296875,-8.86383022046089,-10.905703128302097,-8.814607632130384
1681265157857873400,7.229873291015625,0.7496364640414714,-12.31830899580121,-9.518751342019439
1681265157867806500,7.239806396484375,27.715713302254674,-20.98120747859478,-13.898884242564439
1681265157877740300,7.249740234375,18.90621672952771,-23.117204777288435,-11.110267084991932
1681265157887673300,7.25967333984375,5.7536395143210886,-19.3834507954061,-6.732061353117227
1681265157897606400,7.2696064453125,6.2211915596187115,-18.949781145966053,-4.577272844713926
1681265157907539500,7.27953955078125,-0.4799415712714195,-16.359928318893907,-1.6355714500591159
1681265157917473300,7.289473388671875,0.7467536020815372,-15.2425071747303,1.0853472590327262
1681265157927406300,7.29940625,-3.595060673724115,-12.046233929896355,4.045002535790204
1681265157937339400,7.30933935546875,-16.238519615274665,-10.898072779554129,4.18392497652918
1681265157947273200,7.319273193359375,-16.700488307482004,-11.23043075698614,2.5123691898971794
1681265157957206300,7.329206298828125,-10.469785407674312,-10.544075801765919,1.3389333130449055
1681265157967139300,7.339139404296875,-4.371587775039672,-8.777750019854306,-0.3730224346451461
1681265157977072000,7.349072021484375,4.586151732218266,-6.286920461592078,-2.324699961645901
1681265157987006500,7.35900634765625,12.234414907062053,-3.0684897454857825,-4.1986499597132205
1681265157996939500,7.368939453125,11.004252349859476,-2.372168107524514,-5.619513367947936
1681265158006872300,7.378872314453125,-0.048415929856430735,-5.305213025254011,-4.986774852102995
1681265158016806400,7.388806396484375,-4.817846272417903,-4.982067697325348,-5.279968693882227
1681265158026739500,7.398739501953125,-6.767275289839506,-2.6927748568862677,-6.091636958944797
1681265158036672300,7.40867236328125,-8.143714449936152,-0.0526157379001379,-6.703647159537673
1681265158046606300,7.4186064453125,-9.176810712727903,4.776696515905857,-6.738364837175607
1681265158056539400,7.428539306640625,-9.596416765502095,12.923065864264965,-6.555358047777414
1681265158066472200,7.43847216796875,-10.876516781306266,23.12932074701786,-5.410726240605116
1681265158076405200,7.4484052734375,-12.930828314960003,34.7308480851531,-2.979071340367198
1681265158086339300,7.45833935546875,-14.571183784425259,43.53423640413284,0.06684738460928201
1681265158096272100,7.468272216796875,-11.702533889716863,43.6427844571352,3.083355013923347
1681265158106205200,7.478205078125,-3.444658807593584,38.09381060631275,5.672447085756063
1681265158116139500,7.488139404296875,32.05925337893963,27.694726628327366,7.653378325900435
1681265158126072300,7.498072265625,45.172468890094756,13.850753541123867,7.994839062720537
1681265158136005400,7.50800537109375,7.658914917239547,9.432205277466773,9.310394422787427
1681265158145939500,7.517939453125,-6.3348307982802385,7.138913722780346,7.244757777521014
1681265158155872300,7.527872314453125,-5.4264966411888595,4.1856355798393485,5.829957614848017
1681265158165805300,7.537805419921875,-0.11969430091679095,2.1014503014475108,5.9667129406809805
1681265158175738400,7.54773828125,4.673374088597297,-0.08473053956329822,5.954701600369811
1681265158185672200,7.557672119140625,6.198710263219476,-0.9587345570296049,6.015244039615989
1681265158195605200,7.567605224609375,5.3675294884353875,-0.9948831442534923,5.867108072590828
1681265158205538300,7.577538330078125,3.6783150032550096,-2.130804990747571,6.0812511740088455
1681265158215472000,7.58747216796875,0.6264119431719184,-4.2304041113704445,7.477599734190106
1681265158225405400,7.597405517578125,1.2064695469260216,-5.632594383317231,7.947936441770196
1681265158235338500,7.60733837890625,3.6259640537708995,-6.788454271468519,7.164508767285943
1681265158245272300,7.617272216796875,5.391854951396584,-8.33116945091486,6.7065703535079955
1681265158255205400,7.627205322265625,7.164986906191706,-9.88887586326599,6.311957287693024
1681265158265138400,7.637138427734375,7.581933968889713,-10.75953524647951,6.098608551523089
1681265158275071500,7.647071533203125,6.115801093864441,-11.409878977119922,6.121594874835014
1681265158285005300,7.65700537109375,3.9761318286597724,-13.033268114215135,6.813528506970405
1681265158294938400,7.6669384765625,2.044137491772324,-13.80421273922324,7.062555874764919
1681265158304871400,7.676871337890625,1.1111575537241996,-13.220171326529979,6.006548107463121
1681265158314805200,7.68680517578125,0.8365385024249553,-12.59707099212408,5.100534502273797
1681265158324738300,7.69673828125,1.2100409756720065,-12.0119084664464,4.334375942498445
1681265158334671400,7.70667138671875,1.4863678538024425,-12.118538118606805,4.064428828532994
1681265158344604200,7.716604248046875,1.1955541851580143,-12.459144868946074,4.277429481917619
1681265158354538500,7.72653857421875,0.8080389686495065,-12.604189299696683,4.977148945623636
1681265158364471600,7.736471435546875,0.2754775678247213,-11.899172898626327,5.6118450252771375
1681265158374404400,7.746404296875,-0.46460079427659506,-10.85847609770298,6.15649609234631
1681265158384338400,7.75633837890625,-2.0891952155083415,-9.329774830561876,7.12456546395421
1681265158394271500,7.766271484375,-5.919779340070486,-6.359131126800179,7.874589466008543
1681265158404204300,7.776204345703125,-11.013052911430597,-1.3243670275539159,9.216316209164262
1681265158414138400,7.786138427734375,-15.026500617527962,5.9294701284796,11.941489945352076
1681265158424071400,7.796071533203125,-15.314322703140974,15.317465092819928,15.841643280702828
1681265158434004200,7.806004150390625,-12.908455155110358,23.48036822735071,19.815544573831556
1681265158443937300,7.815937255859375,-9.863532163172959,31.038313417887686,21.476851645910738
1681265158453871400,7.825871337890625,-7.195132453608513,40.015952388358116,23.376103550755975
1681265158463804200,7.83580419921875,-3.337672597080469,43.1792492462635,23.13437335423231
1681265158473737200,7.8457373046875,11.143054086828231,42.15728052668571,19.190996963226794
1681265158483671600,7.855671630859375,42.22886341538429,36.49500061467886,2.5345313373446463
1681265158493604400,7.865604248046875,31.721540011954307,18.57775283692479,-5.266127215534448
1681265158503537400,7.875537353515625,14.99295139914751,8.16165751838386,-3.771387254706025
1681265158513471500,7.885471435546875,4.7082098396569485,3.671070438954234,-2.920064440125227
1681265158523404300,7.895404296875,-3.7508828113377093,0.8655886558204888,-3.0637732383579013
1681265158533337300,7.90533740234375,-8.877414509177207,-1.2946335680693388,-3.6349072386831045
1681265158543270400,7.9152705078125,-10.042939466774463,-3.1491549353063104,-4.262821110850572
1681265158553204200,7.925204345703125,-10.670732342910766,-4.810887539321184,-4.821365678715706
1681265158563137300,7.93513720703125,-12.857995718461275,-5.929970479217172,-5.298785622555017
1681265158573070300,7.9450703125,-16.221997519540786,-7.007239645734429,-5.863292313694954
1681265158583004200,7.955004150390625,-15.768579213535785,-9.545894200488924,-7.183451952686905
1681265158592937200,7.964937255859375,-9.952608622986078,-11.833940255737303,-8.537630765658616
1681265158602870300,7.974870361328125,-2.508434773057699,-12.606321635550259,-9.197358410716056
1681265158612803300,7.98480322265625,19.997370629012583,-18.654410544669627,-13.165789748001098
1681265158622737400,7.9947373046875,25.094707796549795,-23.71824993175268,-13.292443951058386
1681265158632671000,8.0046708984375,7.583797424674033,-20.231289275002478,-7.097929385963082
1681265158642603800,8.014603759765626,0.5132803617715835,-17.769063295412064,-3.8461566644862293
1681265158652537900,8.024537841796874,-7.633622070550918,-15.553554653108119,-1.4768923155792057
1681265158662471000,8.034470947265625,-3.573496784430742,-16.675104859900472,0.873658272768557
1681265158672403700,8.04440380859375,-7.643332148182392,-16.47908193706274,4.412109755042195
1681265158682338000,8.054338134765626,-16.970404149526356,-13.830110566067695,3.3547546647846698
1681265158692271000,8.06427099609375,-11.79493277195096,-11.759817034906149,1.465340847864747
1681265158702204000,8.074203857421875,-4.813859248608351,-10.668666642552614,0.07663257330358028
1681265158712137000,8.084136962890625,9.410272847121954,-7.401622409924864,-4.1995846102148295
1681265158722071000,8.094071044921876,27.029814274108407,-3.263767987436056,-9.703798697334527
1681265158732003800,8.10400390625,1.1178057595670223,-5.947554651224613,-5.880449200201034
1681265158741937000,8.11393701171875,-5.982524257797002,-7.1669415473908185,-4.218052579319477
1681265158751871000,8.12387109375,-5.019716167718172,-6.977582174095511,-4.097508675836027
1681265158761803800,8.1338037109375,-7.1597606959760185,-5.893595097500086,-4.4416818864852186
1681265158771736800,8.14373681640625,-9.486880285984277,-2.9893630172789094,-5.23428830820322
1681265158781670000,8.153669921875,-11.556514476454257,0.7693640778183937,-5.500599403753877
1681265158791603700,8.163603759765625,-10.649825163960456,5.10487457730472,-5.193350148615241
1681265158801537000,8.173537109375,-8.926399197098613,10.671515602242946,-4.941960727864504
1681265158811470000,8.183469970703126,-8.467588676661252,21.3696456551671,-4.484993789467215
1681265158821404000,8.19340380859375,-8.928308830112218,35.068706413567064,-3.5027041693270204
1681265158831337000,8.2033369140625,-5.7065305571436875,46.79628005199432,-1.4164010219983756
1681265158841270000,8.21327001953125,-1.7152993590295313,50.89635974736213,1.7751297044835983
1681265158851203800,8.223203857421876,-0.9425848017394542,42.41180473833084,5.195446244111657
1681265158861137000,8.233136962890624,36.56441609621048,27.559636605358122,5.517871441072225
1681265158871070000,8.243070068359375,26.907773117804524,16.702724688231942,9.218398860657215
1681265158881003800,8.253003662109375,-1.586708050429821,11.29363627796173,9.911944604164361
1681265158890936800,8.262936767578125,-5.940241697862744,6.417202207496762,6.893720234060287
1681265158900870000,8.272869873046876,-3.106488929012418,3.072975950989127,5.736019101956487
1681265158910803000,8.282802978515624,1.7353759323745965,0.5275935492843389,5.7614469732016325
1681265158920737000,8.292737060546875,5.7834033689439295,-2.1695307349830864,5.704943580213189
1681265158930670000,8.302670166015625,6.308480551493168,-2.679163095641136,5.911575575348735
1681265158940603100,8.31260302734375,5.275488333597779,-2.1582085459798575,5.916797109389305
1681265158950537000,8.322536865234374,3.2601211553663014,-2.751646148049831,6.507217409464716
1681265158960470000,8.332469970703125,0.7088726381070911,-3.9602328332602976,8.25113846734464
1681265158970403000,8.342403076171875,2.9460107822865247,-5.0317590722113845,8.66487358225882
1681265158980337000,8.3523369140625,6.293482888847589,-6.203299344575405,8.195872507196665
1681265158990270000,8.36227001953125,10.530842226183413,-11.169219624698162,10.077404046434163
1681265159000203000,8.372203125,17.959419863051174,-16.40809993686676,10.885756903338432
1681265159010135800,8.3821357421875,13.506470148098469,-13.00856738820076,7.770529956597089
1681265159020070000,8.39206982421875,7.605207876971363,-10.470542948043345,6.5549652490675445
1681265159030003000,8.4020029296875,4.207071166577935,-10.972273157274723,7.6279481165677305
1681265159039935700,8.411935791015624,0.35124373355731364,-13.208020285487175,9.6797356847018
1681265159049870000,8.4218701171875,-0.3681106972061097,-12.997124787688255,8.051502614706754
1681265159059803100,8.43180322265625,-0.05982333119139075,-11.615755769973992,5.100407076501846
1681265159069736000,8.44173583984375,0.7779775923848151,-11.686654768061636,3.816197871813178
1681265159079670000,8.451669921875,0.3586749064713716,-11.495712509489058,3.3577368954658504
1681265159089603000,8.46160302734375,-0.2735608474832028,-11.432754825794696,3.41233620839864
1681265159099536000,8.471535888671875,0.16891688924729822,-10.897374860417843,3.8101258584231137
1681265159109469000,8.481468994140625,0.31310674899518487,-9.85519571198225,4.262515990424156
1681265159119403000,8.491403076171874,0.06949205389916896,-8.420920448988676,4.635215915116667
1681265159129335800,8.501335693359374,-2.2476596843242644,-5.320231146165728,5.244822561699151
1681265159139268900,8.511268798828125,-6.440138261926174,-1.0212591100037098,6.322238443210721
1681265159149203000,8.521202880859375,-9.999244117432832,3.6550486939579248,9.374410091102122
1681265159159135700,8.5311357421875,-12.955218075329064,11.73459608440995,13.236062138622998
1681265159169068800,8.54106884765625,-13.750470627641677,21.003337477338313,17.62602494378686
1681265159179003000,8.5510029296875,-11.725773311007023,32.81266468534469,23.724698377239704
1681265159188936000,8.56093603515625,-4.881174542990326,48.72655837874412,29.33007391424179
1681265159198869000,8.570868896484376,7.6502178160428995,62.986320590782164,30.657724201250076
1681265159208802800,8.580802734375,32.92776405968666,54.81172117323875,16.389661778378485
1681265159218735900,8.59073583984375,35.9705932942152,22.802131112134454,2.8628520220845934
1681265159228669000,8.6006689453125,20.810001017105577,9.244933816361426,1.0498445684969424
1681265159238602000,8.61060205078125,8.938791645681858,4.738293427753448,0.017598785054683683
1681265159248535800,8.620535888671874,-0.20886961799450218,2.525612117829919,-1.2920154945254325
1681265159258468900,8.63046875,-7.5871081566572185,1.2335627210348843,-2.3400112202852963
1681265159268402000,8.64040185546875,-12.14167583308816,-0.12027823828458785,-3.379956326058507
1681265159278335700,8.650335693359375,-13.699001137167215,-1.7978905484765766,-4.543645300400257
1681265159288268800,8.660268798828126,-14.70989901215434,-3.2775603659451007,-5.559010091668367
1681265159298202000,8.6702021484375,-16.75077004947662,-4.38060168710053,-6.240974702975153
1681265159308136000,8.680135986328125,-20.145107367587087,-5.115249840846658,-6.9792474769592285
1681265159318069000,8.690069091796875,-20.96039148505926,-5.804957029104233,-8.028584680455923
1681265159328002000,8.700001953125,-12.006902620983123,-8.744089742314815,-10.29924997731447
1681265159337934800,8.709934814453124,7.303872814312577,-15.631087974643707,-14.194409157639742
1681265159347869000,8.719868896484375,32.15443926154375,-24.383730441248414,-18.02709230030775
1681265159357802000,8.729802001953125,14.647505976605414,-24.533393763971326,-12.639604311949014
1681265159367734800,8.73973486328125,3.257148861557245,-20.556594411313533,-7.740162875384092
1681265159377668900,8.7496689453125,6.957172423273325,-20.026571004533768,-5.119458398452401
1681265159387602000,8.759601806640624,2.9424948831200597,-17.10577825013399,-1.6431196734815836
1681265159397534700,8.76953466796875,8.665202668082713,-14.300478837829827,1.3621072678834198
1681265159407469000,8.779468994140625,5.103194076871872,-9.749324769234656,5.731523544102907
1681265159417402000,8.789402099609376,-16.900743168801068,-8.958308831578492,5.63289599661231
1681265159427335000,8.7993349609375,-21.36319954776764,-9.698342185494303,2.947936197391152
1681265159437268000,8.80926806640625,-14.409619596028326,-9.584168109303713,1.8497253651320933
1681265159447202000,8.8192021484375,-7.001672074735164,-8.443725570514797,0.37870880971848964
1681265159457134800,8.829134765625,1.1128349854171276,-7.039961181119084,-2.1936115755334495
1681265159467068000,8.83906787109375,10.166431406408547,-5.348070754727721,-5.280425789999962
1681265159477002000,8.849001953125,13.471007205051183,-2.6625696882367134,-7.433717922365665
1681265159486934800,8.858934814453125,4.765776477962732,-2.9831156473219393,-7.662869207823276
1681265159496867800,8.868867919921875,-3.973559347823262,-4.321313631829619,-7.077471704345941
1681265159506802000,8.878802001953124,-6.496515398186445,-2.128777868834138,-7.789452099210023
1681265159516734700,8.888734619140624,-7.3931386592179535,0.4473059606045484,-8.105994083350897
1681265159526667800,8.898667724609375,-7.378492294228076,4.356361564335227,-8.274718664896488
1681265159536602000,8.90860205078125,-7.871061876404285,11.301756456053257,-7.716202154082059
1681265159546535000,8.918534912109376,-8.678312909546493,21.322547219383715,-6.864748406597972
1681265159556468000,8.928468017578124,-10.077573557782172,32.86441357728243,-4.722343871210515
1681265159566402000,8.938402099609375,-11.669019742649793,41.60012361378669,-1.158385022714734
1681265159576334800,8.9483349609375,-9.942311685377359,44.07544288370609,2.357373273974657
1681265159586268000,8.958267822265626,-4.304646574667096,42.475728052186966,7.857160776823759
1681265159596201000,8.968200927734374,11.114834539037941,32.55307617604732,14.509265380650758
1681265159606134800,8.978134765625,35.986693365144724,13.89802733347416,12.602563159799574
1681265159616067800,8.98806787109375,16.485450887572764,9.006429011625052,8.829232954332232
1681265159626001000,8.9980009765625,5.148858680459857,7.532727747172117,7.477317410117387
1681265159635934200,9.007934326171876,2.2804228668935598,4.043427833819389,7.35976070575118
1681265159645867000,9.017866943359374,1.4842093605943023,1.3860820177108049,7.205137714794278
1681265159655800000,9.027800048828125,2.7645161510169505,-0.7975760268241167,7.126956158483028
1681265159665734400,9.037734375,3.5415780898615714,-1.1126169587522745,7.100721647030115
1681265159675667200,9.047667236328126,3.216238466759026,-0.775225078806281,7.252129183071851
1681265159685600300,9.057600341796874,1.8179197755485772,-1.8926608360171318,7.580096816590428
1681265159695534300,9.067534423828125,-0.06569938361793756,-4.017639312568306,8.18509976876974
1681265159705467100,9.077467041015625,0.7005918626263737,-5.719949426165223,8.577755855298042
1681265159715400200,9.087400146484375,2.9588033361032604,-7.222582186070084,8.581745217195152
1681265159725334300,9.097334228515624,7.088667636620998,-10.895806003665923,9.689363344746827
1681265159735267000,9.10726708984375,16.24565662754774,-15.147152949821947,9.531004089871049
1681265159745200000,9.1172001953125,14.440785134142637,-13.682530479359626,7.113866959807276
1681265159755133200,9.12713330078125,8.794856637477874,-11.462911479127406,5.993931786996126
1681265159765067000,9.13706689453125,5.058424960818886,-11.383245821738242,6.657900722885131
1681265159775000000,9.147,0.14974179478660224,-13.329883747136591,7.770642184799909
1681265159784933400,9.156933349609375,-0.12810944336690008,-13.098296174442767,5.843951653409004
1681265159794867200,9.1668671875,0.9719301386892795,-11.834044300633668,3.402531438221037
1681265159804800300,9.17680029296875,0.5725515389729291,-11.423289078313111,2.641953893448412
1681265159814733300,9.1867333984375,0.23457798668146132,-11.229714133149384,2.401896890833974
1681265159824667100,9.196667236328125,0.014978921412490307,-11.321972730129957,2.373906475624442
1681265159834600200,9.20660009765625,-0.42181613003909585,-11.471813747507333,2.664314193816483
1681265159844533200,9.216533203125,-0.23691724328398703,-10.813220074915884,3.2072090648680924
1681265159854467000,9.226467041015624,0.34393151084780693,-9.678588268232344,3.699658820056915
1681265159864400100,9.236400146484375,-0.9856266556084156,-8.294137066593766,5.1376329375684255
1681265159874333200,9.246333251953125,-8.240423596584796,-4.019599798986316,7.03252723172605
1681265159884267300,9.256267333984376,-16.19198348954916,3.941153454259038,9.018974020421505
1681265159894200300,9.266200439453126,-16.9408904702723,11.803676050376891,12.25735856027603
1681265159904133400,9.27613330078125,-15.550293020963668,19.76325792175531,16.066229450201988
1681265159914066400,9.28606640625,-12.513384993177652,28.99526445200443,19.739110153448582
1681265159924000300,9.296000244140625,-7.711610150116681,39.53053735411167,23.496299955976006
1681265159933933300,9.305933349609376,0.2258481157263741,47.4417512081623,25.688207942461965
1681265159943866400,9.315866455078124,17.233504466336964,52.41517207317352,24.23407647087574
1681265159953800200,9.32580029296875,41.631514777350425,35.54385490534305,7.148523847168684
1681265159963733200,9.335733154296875,31.56069829261303,13.858508977556228,-0.11853811661899089
1681265159973666300,9.345666259765625,15.59725000244975,6.627676265013218,0.042732057267427445
1681265159983600000,9.35560009765625,5.201523518198728,3.2764170411288736,-0.8576087629824877
1681265159993533200,9.365533203125,-3.585981002950668,1.2563193272441624,-1.9949644416719674
1681265160003466200,9.37546630859375,-10.63428389595747,-0.39587446405291554,-2.9842852756232023
1681265160013400300,9.385400390625,-13.581574196660517,-1.7852672137469052,-4.063620727020502
1681265160023333400,9.39533349609375,-13.387296656185388,-3.40842838730514,-4.801835633337498
1681265160033266400,9.405266357421874,-13.243216686552762,-4.673372335031629,-5.1978977289170025
1681265160043200300,9.4152001953125,-14.458769703644514,-5.9449272253304715,-5.675637406229972
1681265160053133300,9.42513330078125,-14.894140311783552,-7.682367104497551,-6.510147617697715
1681265160063066400,9.43506640625,-9.044248746931553,-11.347746638333797,-8.295074055182933
1681265160073000200,9.445000244140624,-4.495144596603512,-11.04922780213952,-8.192941714441776
1681265160082933200,9.454933349609375,9.914691857045888,-15.262525880408287,-9.931728332042693
1681265160092866300,9.4648662109375,25.856117700493336,-23.33812131836414,-11.856191835033894
1681265160102799000,9.474799072265625,9.440683182954787,-21.15356661725044,-7.3814078894138335
1681265160112733200,9.484733154296874,6.1842111977458,-20.19853968256712,-5.325922051283717
1681265160122666200,9.494666259765625,-1.790148556047678,-17.523582806444168,-3.0925235320240256
1681265160132599000,9.50459912109375,-3.810704827354848,-16.051891128247977,-1.2098762866295873
1681265160142533400,9.514533447265626,-0.28553792019858953,-13.750409837365149,0.4020142089169472
1681265160152466200,9.524466064453126,-7.631419592070579,-10.892404086267948,1.358869308875501
1681265160162399200,9.534399169921874,-12.023901686578988,-9.950325480484961,0.8012292886346578
1681265160172333300,9.544333251953125,-9.31652605741024,-8.57251970821023,-0.1951008395567536
1681265160182266000,9.55426611328125,-4.967345344489813,-7.125209022554754,-0.8942080165833234
1681265160192199200,9.56419921875,5.0598190455257885,-5.278219804388284,-1.7127936598189175
1681265160202133200,9.57413330078125,10.478236425155401,-4.383646461623907,-3.4800346568793055
1681265160212066000,9.584066162109375,7.377302792182564,-4.736486670592427,-4.695087323233485
1681265160221999000,9.5939990234375,-0.23545243142843245,-6.300292568862438,-4.539249695789814
1681265160231933200,9.60393310546875,-3.4666678103059527,-6.080968849936127,-5.000535081908106
1681265160241866000,9.613865966796874,-4.048383410400152,-5.038608499714732,-5.845863039988279
1681265160251799000,9.623799072265625,-4.80020773987472,-3.6884488592565057,-6.69904463417828
1681265160261733400,9.6337333984375,-5.39260840011239,-1.0282418084979057,-7.622854008299112
1681265160271666200,9.643666259765626,-5.853056166362762,4.426030143845081,-8.167722517511248
1681265160281599200,9.65359912109375,-8.396817688867449,13.176617431485653,-7.467012289202213
1681265160291533300,9.663533203125,-11.54352990719676,24.02772855337858,-5.194467754468321
1681265160301466000,9.673466064453125,-14.702479091286659,36.21536300456523,-2.038282920525223
1681265160311399200,9.683399169921875,-16.10628439721465,44.79285231788158,1.6637908517189324
1681265160321333200,9.693333251953124,-12.745378224062918,46.367362565517425,4.878973233553767
1681265160331266000,9.70326611328125,-4.215126462739706,42.05873481225967,7.469409997993707
1681265160341199000,9.71319921875,31.171645199012755,31.939704623973366,8.608111830595135
1681265160351133200,9.72313330078125,60.82834994521141,12.941342694711684,7.446592601507902
1681265160361066000,9.73306591796875,13.100814294743538,10.050655155718326,8.559864809298515
1681265160370999000,9.7429990234375,-6.515098518103361,8.298370758640766,7.996109228786826
1681265160380932400,9.752932373046875,-3.951023106366396,6.210934954020381,7.918156220534444
1681265160390866200,9.7628662109375,-0.006773878049105405,5.270439233514666,8.065090410554408
1681265160400799200,9.77279931640625,1.7957763328015803,2.6104385189831256,8.259668979802727
1681265160410733300,9.7827333984375,1.8970893199838696,-0.14864625463485717,8.680531170117854
1681265160420666000,9.792666015625,0.7135574349224567,-2.9315625702172516,9.215939777067303
1681265160430599200,9.80259912109375,0.4126607636809349,-5.460425214275717,9.898283158558607
1681265160440532200,9.8125322265625,2.7451722758606074,-7.746853897455334,10.515430722039937
1681265160450466000,9.822466064453126,7.902714905774593,-9.325890098083018,9.723932553824781
1681265160460399000,9.832399169921874,14.987120208775996,-11.29128649996519,8.76308553468585
1681265160470332200,9.842332275390625,16.818635378956795,-14.2338749065876,9.242607419240475
1681265160480266200,9.852266357421875,11.602637929725645,-13.557000896418094,8.209768346080184
1681265160490199300,9.86219921875,6.102008130833506,-11.54160916826725,7.571838691332935
1681265160500132400,9.87213232421875,2.15520541864112,-12.357106051707268,7.768890957218408
1681265160510066200,9.882066162109375,-0.17337138443812727,-13.20215402380228,7.636524806255101
1681265160519999200,9.891999267578125,-0.3294704392969608,-12.621136927366257,6.029747196742892
1681265160529932300,9.901932373046876,0.4217138387084007,-12.172114225971699,4.639329780176282
1681265160539866000,9.9118662109375,0.6202210526425391,-12.14954466676712,4.1737686164349315
1681265160549799200,9.921799072265625,-0.3511906151305884,-12.6722334928751,4.39136156604588
1681265160559732200,9.931732177734375,-1.0565413627218454,-13.146644318026304,4.714619706699252
1681265160569666000,9.941666015625,-1.7616870161950586,-12.345393402081728,4.9163586690962315
1681265160579599000,9.95159912109375,-2.183219068595767,-10.852069737792014,4.729795063999295
1681265160589532200,9.9615322265625,-3.2576445361196993,-9.503538575318455,5.059364872017502
1681265160599466200,9.97146630859375,-8.648601077371834,-6.474992717686295,6.002322014200687
1681265160609399300,9.9813994140625,-15.044003540992735,0.05413140316009521,7.124338669461012
1681265160619332400,9.991332275390626,-18.303395797562597,8.630123755916953,9.485692537504434
1681265160629266200,10.00126611328125,-17.369070290124416,19.12541243816018,13.919891959279775
1681265160639202800,10.011202880859376,-15.21462548059225,30.653344963252543,17.690482510650156
1681265160649135900,10.021135986328124,-11.30656356407404,39.2744512999773,18.330087405133245
1681265160659070000,10.031070068359375,-3.5351287675917145,44.062807858538626,17.77734830867648
1681265160669003000,10.0410029296875,5.999095453369617,45.695340087032314,18.80598876110315
1681265160678936000,10.05093603515625,34.300261204159256,42.266862014389034,16.751038929545878
1681265160688870000,10.060869873046874,39.71256214673519,25.31877841774225,4.264910192084312
1681265160698803000,10.070802978515625,23.19437335716486,9.235240689864755,-0.5039946470320225
1681265160708736000,10.080736083984375,10.814950259709358,4.879727851313352,-0.4363467596948147
1681265160718669800,10.090669921875,1.154483339101076,2.6241017181545496,-0.9676824181169271
1681265160728603000,10.100602783203126,-6.067424893230199,0.7805044805139303,-1.8492922344118357
1681265160738536000,10.110535888671874,-10.67728950946927,-1.0505822351217269,-2.803292456395924
1681265160748469800,10.1204697265625,-14.118816448777913,-2.99105988432467,-3.6361657143115997
1681265160758402800,10.13040283203125,-15.041838471913337,-5.011922152841091,-4.357302060055733
1681265160768336000,10.1403359375,-15.50291985989213,-6.960609996506571,-4.636243796859682
1681265160778270000,10.15027001953125,-16.53773169443011,-8.37281371294558,-4.956041860187053
1681265160788203000,10.160203125,-15.634519118136167,-9.689847913393377,-5.2526703525900835
1681265160798136000,10.170135986328125,-11.562689365696906,-11.499003367727994,-5.880780039590597
1681265160808070000,10.18006982421875,0.28902148799803107,-15.332625252550839,-8.240911087840795
1681265160818003000,10.1900029296875,21.6191897403121,-23.042923735547063,-11.900601470124721
1681265160827936000,10.19993603515625,16.76968517782688,-24.348093310678003,-9.599867782738805
1681265160837869800,10.209869873046875,9.874656783777475,-21.078909143412112,-5.665137055003643
1681265160847803000,10.219802978515625,6.0894952707409855,-19.024285475069284,-2.3024637260489165
1681265160857736000,10.22973583984375,-1.3140716973803936,-16.005993300426006,0.3832533212803304
1681265160867669800,10.239669677734375,0.6693941758081317,-15.834654736989735,2.195862715461105
1681265160877602800,10.249602783203125,-0.34851182437539097,-14.31379073934555,3.386780619120598
1681265160887535900,10.259535888671875,-6.923031668740511,-12.040370006299018,3.4511160209089518
1681265160897470000,10.269469970703126,-14.198556924968956,-11.225466997098922,2.5941329886093736
1681265160907403000,10.279403076171874,-12.907399508577585,-10.641398696398735,0.7572796722710132
1681265160917336000,10.289336181640625,-4.419617938715219,-7.932063165333867,-1.5897662689566612
1681265160927268900,10.299268798828125,9.127817841500043,-4.854381813132763,-4.272859397523105
1681265160937203000,10.309202880859376,10.24620929200053,-4.757016832923889,-5.088219795101881
1681265160947136000,10.319135986328124,5.649183114546537,-5.144966933718323,-5.062985985124111
1681265160957068800,10.32906884765625,-0.981452000272274,-6.4490621576160185,-3.9423084695130584
1681265160967003000,10.3390029296875,-3.9960803917109966,-7.050787695559859,-3.953599971117079
1681265160976936000,10.34893603515625,-4.149415388683974,-6.483651824960112,-4.7217467821002
1681265160986868700,10.35886865234375,-4.2544349752992385,-5.210631538283825,-5.884089018008113
1681265160996802800,10.368802734375,-4.6619501927852625,-3.7079087620079516,-7.887713151475786
1681265161006736100,10.378736083984375,-4.511595380666852,-1.2036848846435546,-10.269334147000313
1681265161016670000,10.388669921875,-6.0475564096778625,3.9783687939316033,-11.965744096642732
1681265161026603000,10.39860302734375,-9.952567706453799,12.848950826740264,-10.886361298972368
1681265161036536000,10.4085361328125,-15.436574287325143,24.248614699316022,-6.608429712751508
1681265161046470000,10.418469970703125,-19.33798434473872,36.35486499875784,-1.3209836687259375
1681265161056403000,10.42840283203125,-20.108247417223453,43.156111531782145,4.247194794912636
1681265161066336000,10.4383359375,-15.247664995884895,44.45989462099075,9.806272398859262
1681265161076269800,10.448269775390624,-0.48418154692873355,52.29779072537422,19.8272513782382
1681265161086203000,10.458202880859375,70.45100648286342,39.49117331197262,12.52390638719201
1681265161096136000,10.468135986328125,37.91986624429226,20.019559079945086,8.439123045155405
1681265161106069800,10.47806982421875,-2.8308041481778026,12.627424044811725,9.7025817227602
1681265161116003000,10.488003173828124,-4.531938788254559,6.559795737963914,8.698102482643723
1681265161125936000,10.49793603515625,-1.2716378924071787,4.1868262509286405,8.755347633910178
1681265161135870000,10.507869873046875,0.5341755580231548,0.7996224379599094,7.943264358305931
1681265161145803000,10.517802978515626,0.7427008195593953,-2.7854841202437877,7.497029826325178
1681265161155736000,10.527736083984376,0.2307230648189783,-5.6742859916210175,7.434356804791093
1681265161165670000,10.537669921875,0.5399639321662485,-7.56632957252264,7.8967007600516075
1681265161175603000,10.54760302734375,2.7434526124611494,-9.29644013171494,8.383806816124915
1681265161185536000,10.557535888671875,7.6553803133726115,-11.149521237015724,7.353769940903782
1681265161195469800,10.5674697265625,16.79269897366762,-14.75428526636958,6.9959536970883605
1681265161205403000,10.57740283203125,17.853744150614737,-16.943778008407353,7.056169388598203
1681265161215336000,10.5873359375,11.127042863225936,-14.956438654786348,6.478730150648951
1681265161225270000,10.59727001953125,7.66832688870728,-15.298230815517902,7.866565734028816
1681265161235203000,10.607203125,3.388428970849514,-17.77873128746748,10.199835663360357
1681265161245136100,10.61713623046875,0.7318611533761024,-17.671497239673137,9.472351409894227
1681265161255070000,10.627070068359375,-0.3123257546853274,-14.726009604477882,6.808136877059936
1681265161265003000,10.6370029296875,-1.4050016761057078,-12.774008106219767,4.3749201343327755
1681265161274936000,10.64693603515625,-0.06978833343200386,-12.53306233807206,3.310773484238982
1681265161284870000,10.656869873046874,-1.895411011508107,-12.84118369987011,3.6275294033914802
1681265161294803000,10.666802978515625,-2.719208105781674,-13.230138593792914,4.157900600695609
1681265161304736000,10.676736083984375,-2.9057179348647595,-12.408801167631148,4.542973977009952
1681265161314669800,10.686669921875,-1.62900814602077,-10.701471180045605,4.539902606740593
1681265161324603000,10.696602783203126,-0.11040097825950942,-9.015859103271364,4.629346146300435
1681265161334536000,10.706535888671874,-4.158555265212059,-5.22305964270234,4.831279462225735
1681265161344470000,10.716469970703125,-11.08427222751379,1.6714970421820878,6.0278907552212475
1681265161354403000,10.726403076171875,-16.031709925484655,10.341445443487167,9.269684811258315
1681265161364336000,10.736336181640626,-17.56866814883947,21.46267582104206,14.521859489285944
1681265161374270000,10.74627001953125,-16.854669984412194,33.20536051936149,19.605140074419975
1681265161384203000,10.756203125,-11.059186886096,45.49382032034397,23.525476950621602
1681265161394136000,10.766135986328125,-1.8032248952418564,56.76967778050899,25.185911916041373
1681265161404070000,10.77606982421875,12.946271383285522,57.669603005695336,25.113604220199583
1681265161414003000,10.7860029296875,40.45922573244572,41.07688299901485,14.812565605902671
1681265161423936000,10.79593603515625,37.500649483096595,15.574392858475445,1.3405372411102057
1681265161433869800,10.805869873046875,19.810536390280724,6.122737030607461,0.2273328378587961
1681265161443803000,10.815802978515626,8.93375189794898,2.871319990700483,-0.0014297405421733855
1681265161453736000,10.82573583984375,0.29344869332313533,0.9803916775643825,-0.7032172426939011
1681265161463670000,10.835669921875,-7.888970458060503,-0.4397615365743637,-1.668020305982232
1681265161473603000,10.84560302734375,-13.571207116425036,-1.8599428077638147,-2.670448458787799
1681265161483536100,10.8555361328125,-15.457239474213122,-3.4965251884311437,-3.4970196939498184
1681265161493470000,10.865469970703124,-16.711234157902002,-5.212296841147542,-4.2760219532072545
1681265161503403000,10.875403076171875,-19.33385878924131,-6.533723723596334,-4.78246311660856
1681265161513336000,10.885336181640625,-23.68898408977985,-7.586582086956501,-5.227727049991488
1681265161523270000,10.895269775390625,-23.550129745841026,-9.12334741808772,-6.163439043352008
1681265161533203000,10.905202880859376,-11.100046135228872,-12.637960636395215,-8.549117789834737
1681265161543136000,10.915135986328124,16.193915918916463,-20.76480812268257,-14.626542683553694
1681265161553069800,10.92506982421875,24.46031216114759,-27.727763805532454,-15.450907933104038
1681265161563003000,10.9350029296875,13.3757114323318,-26.940557781553267,-10.360512547528742
1681265161572936000,10.94493603515625,11.150015742534398,-23.9369780228734,-5.511837421604991
1681265161582870000,10.9548701171875,8.006755125963688,-19.207274728810788,-0.5930927341550588
1681265161592803000,10.964802978515625,4.082089280647039,-14.927502483159303,3.4668773614034056
1681265161602735900,10.97473583984375,10.617821421456336,-12.813120803946257,7.935610044160485
1681265161612670000,10.984669921875,-8.4304236058712,-10.386607942771912,8.733889835339784
1681265161622603000,10.99460302734375,-22.751778058469295,-11.173255163824557,3.590818506109714
1681265161632535800,11.004535888671874,-18.339555490702388,-10.521714332354069,2.2199046853058038
1681265161642466300,11.01446630859375,-10.261668726938963,-8.825015044376254,1.2412437770567835
1681265161652399400,11.0243994140625,6.046597209256887,-6.202802500969171,-2.4845968013525006
1681265161662332400,11.03433251953125,23.606136295223234,-2.348463991332054,-9.519576686927676
1681265161672266200,11.044266357421876,9.172482328134775,-3.923036198288202,-8.08631089323759
1681265161682199300,11.05419921875,-2.7942402581512926,-6.18760551635921,-6.052844579213858
1681265161692132400,11.06413232421875,-6.914675343805551,-6.519535039246082,-5.847629465138912
1681265161702066200,11.074066162109375,-8.359985795554518,-5.296501895532011,-6.895225962448119
1681265161711999500,11.08399951171875,-8.710610666561125,-3.28860256896317,-8.201116253069042
1681265161721932300,11.093932373046876,-9.208272603440284,-0.7920359283536672,-9.312835970720649
1681265161731866400,11.103866455078125,-8.449998074913024,2.7508395078420635,-10.597447326469421
1681265161741799400,11.11379931640625,-6.631311406645178,8.599335234421492,-11.465719522285461
1681265161751733200,11.123733154296875,-8.026310890305043,18.0120022832036,-10.921910751259325
1681265161761666300,11.133666259765626,-12.450007622766494,29.958455988442896,-7.942474084711074
1681265161771599400,11.143599365234374,-15.967190399301051,40.99163165044784,-2.801580391781032
1681265161781533200,11.153533203125,-16.610967611032724,46.46039039330482,3.5426752374485133
1681265161791466200,11.16346630859375,-12.856432706928253,45.382934179782865,9.516232052674889
1681265161801399300,11.1733994140625,11.613738000410795,43.10840519323349,20.93996829023361
1681265161811333000,11.1833330078125,56.152726616382594,29.462327837002274,20.36118406741619
1681265161821266400,11.193266357421875,25.499152520549295,14.903327826845645,11.383457418662308
1681265161831199500,11.203199462890625,2.3513791481263935,10.277810883444547,8.578306474918126
1681265161841133300,11.21313330078125,-1.0646937625825406,6.6146151233881705,7.734678306493163
1681265161851066400,11.22306640625,-0.7936690825134516,3.5273967120349403,8.048311125189066
1681265161860999400,11.23299951171875,0.6985954281121493,-0.279801276242733,7.810055326777696
1681265161870933200,11.242933349609375,1.566855056707561,-3.296110752636194,7.4697519432991735
1681265161880866300,11.2528662109375,2.102256649394333,-5.194430929589271,7.036554003024101
1681265161890799400,11.26279931640625,2.03705294033885,-6.9767924850225445,6.96879973270297
1681265161900733200,11.272733154296875,1.298976273448765,-8.66806039560139,7.811338352325558
1681265161910666200,11.282666259765625,3.2827696250259875,-9.90066450073719,8.69823867624402
1681265161920599300,11.292599365234375,9.804422971600294,-11.289883647429942,7.870867815136909
1681265161930533400,11.302533447265626,18.095618139523268,-15.29982071505785,8.20992441342473
1681265161940466400,11.312466552734374,16.414295868897437,-15.83356401914358,7.2673524711668485
1681265161950399500,11.3223994140625,9.800648129236697,-13.787090924030542,6.438440225836635
1681265161960333300,11.332333251953125,6.8201032091856,-15.125995595502852,8.570649238163233
1681265161970266400,11.342266357421876,1.9021775830335914,-18.63649611779451,12.074026776707171
1681265161980200200,11.3522001953125,0.11565408561527728,-17.987602001440525,10.162291822385788
1681265161990133200,11.36213330078125,0.7419624222822487,-17.1166877666831,7.589837289360165
1681265162000066300,11.37206640625,0.504685551905632,-16.41257737454176,6.206694247710704
1681265162010000100,11.382000244140626,-0.8804506363224238,-16.015600502204894,5.3840024843305345
1681265162019933200,11.39193310546875,-2.6036557269752025,-15.843998903918266,5.190633875393867
1681265162029866200,11.4018662109375,-3.416401850402355,-14.648684372735023,4.730668339702487
1681265162039800300,11.41180029296875,-3.3080332456201313,-11.317047548687457,4.592148926806449
1681265162049733400,11.4217333984375,-2.620636672392487,-7.857286449030041,4.1636479121759535
1681265162059666400,11.43166650390625,-0.13444942351076752,-5.020682966923713,4.102007156299054
1681265162069600300,11.441600341796875,1.2554489741504191,-2.7773563433676958,5.506226011463999
1681265162079533300,11.451533203125,-3.459689203464985,2.323831069856882,8.910468052995205
1681265162089466400,11.46146630859375,-10.677097786289453,11.911432660740614,14.163012148857115
1681265162099400200,11.471400146484376,-14.233423655688762,24.806580590510368,23.36448091750145
1681265162109333200,11.481333251953124,-13.15918348160386,40.11244058573246,33.42802127375602
1681265162119266300,11.491266357421875,-6.776210291445254,57.846343720436096,40.14043216998577
1681265162129200000,11.5012001953125,3.2728409362077713,69.97913832793235,38.724586882174016
1681265162139133200,11.51113330078125,24.003639237260817,56.76890153543949,18.47110915623903
1681265162149066200,11.521066162109374,36.15800971674919,26.679938175642487,0.9127706782341003
1681265162159000300,11.531000244140625,27.317256420493123,11.550234373271465,-2.86246740668118
1681265162168933400,11.540933349609375,14.396418753671645,5.6206163607537745,-2.6707570863455534
1681265162178866400,11.550866455078125,3.835415197980404,2.2253969991117715,-2.285139812412858
1681265162188800300,11.56080029296875,-4.713422021347284,0.27165479466617104,-2.0213409919440744
1681265162198733300,11.5707333984375,-10.488972923225164,-1.1045680923312902,-2.3696458955705166
1681265162208667400,11.58066748046875,-13.925819011241197,-2.273513087505102,-3.350280149719119
1681265162218600200,11.59060009765625,-16.261405985343455,-3.4745413201600313,-4.522627062290907
1681265162228533200,11.600533203125,-20.10838770247698,-4.4579602365911,-5.6190551027864215
1681265162238467300,11.61046728515625,-26.68989609055519,-5.132126156845689,-6.54258916709721
1681265162248400100,11.620400146484375,-29.237293923735617,-5.379017681655287,-7.531628261497616
1681265162258333200,11.630333251953125,-19.728567716646193,-7.02629798194766,-9.449513555142284
1681265162268267500,11.640267578125,12.777087367534637,-17.350345715910194,-16.09723950549364
1681265162278200300,11.650200439453124,41.39697653815746,-30.992140864777564,-21.71139222319126
1681265162288133400,11.66013330078125,11.65660566675663,-26.285290038514137,-13.44779350272417
1681265162298067500,11.6700673828125,3.1589982839286326,-22.987193080496787,-8.485039577677846
1681265162308000300,11.680000244140626,8.40222393182516,-21.434319495129586,-5.002525963464379
1681265162317933300,11.689933349609374,7.737268322986364,-17.926019113230705,-0.689126319629699
1681265162327867400,11.699867431640625,14.199086501801013,-13.484653453087805,3.6825878582686182
1681265162337800200,11.70980029296875,1.9459888138398527,-10.812058045399189,8.058173178511858
1681265162347733200,11.719733154296875,-18.28065906509757,-9.866341375374793,5.602822345387935
1681265162357667300,11.729667236328124,-19.65703626587391,-9.443869996297359,3.5802617485210297
1681265162367600000,11.73960009765625,-12.36754561265707,-9.264226545852422,2.284253677228093
1681265162377534500,11.749534423828125,-6.486688416177034,-8.735512468105554,0.36412177370041604
1681265162387467300,11.75946728515625,-0.6187912390351296,-8.193713867858051,-2.598861186175048
1681265162397400300,11.769400390625,15.771549753779173,-4.377058315405249,-8.460335929054022
1681265162407334400,11.77933447265625,12.601204730927943,-1.734711330986023,-10.084059412670134
1681265162417267200,11.78926708984375,-2.029365308445692,-5.820680667936801,-7.235622869428992
1681265162427200300,11.7992001953125,-4.6284652718126775,-4.896899935388565,-7.129293076997995
1681265162437134300,11.80913427734375,-6.983079602468013,-3.0041356389969587,-7.52196085396409
1681265162447067100,11.819067138671874,-7.6025816201210015,-0.06782324390411376,-8.015280962246656
1681265162457000200,11.829000244140625,-7.4922215492606155,4.415856540355086,-8.227149104470014
1681265162466934300,11.838934326171875,-9.357896763196587,12.276665318292379,-8.34718651973605
1681265162476867000,11.8488671875,-11.313629264676571,23.30869882452488,-7.84710583127737
1681265162486800100,11.858800048828124,-13.207757250636815,35.847666002726555,-6.213672270029783
1681265162496734500,11.868734375,-14.48591022402644,45.22404242546558,-3.180657742550969
1681265162506667300,11.878667236328125,-12.963857308858632,46.94185405957698,0.7835790656536817
1681265162516600300,11.888600341796876,-8.863744880264997,41.653273020172115,4.5555955581739545
1681265162526534400,11.898534423828124,-0.39060967539250846,30.72574384450912,8.81675984172821
1681265162536467200,11.90846728515625,28.62069347274303,16.31940224723816,16.847100425940752
1681265162546401300,11.9184013671875,25.906632082200048,11.102871714043616,15.161886408573388
1681265162556334300,11.928334228515626,9.262847658714652,8.4580077783674,10.279066436463594
1681265162566267100,11.93826708984375,4.177761485463381,6.452963841229677,7.909446259856224
1681265162576201200,11.948201171875,3.2926690877497196,4.3978480054557325,8.010675514277816
1681265162586134300,11.95813427734375,4.705480999214947,0.8949871842622756,8.122398105663061
1681265162596067000,11.968067138671875,5.980039455243944,-1.1620002906024456,8.07264067980349
1681265162606001400,11.97800146484375,5.11925556935668,-0.8214695281088352,8.467677523988485
1681265162615934500,11.9879345703125,3.3619574357703326,-1.0512029973685741,8.659046483540534
1681265162625867300,11.9978671875,0.7686335715867578,-2.6347844402104617,9.172242089638113
1681265162635805000,12.007804931640624,-0.866847423709929,-4.734404019099474,9.901910701406
1681265162645738000,12.017738037109375,1.2517730621166527,-6.219697521668672,10.54433532948494
1681265162655670800,12.0276708984375,6.2148448209404945,-9.604916298300028,11.538628106629847
1681265162665605000,12.037605224609376,17.705857774436474,-15.282421836489439,11.349921059763432
1681265162675538200,12.0475380859375,19.01004067661762,-15.026320584785937,8.51542945524454
1681265162685472000,12.057471923828125,11.508775404679774,-12.055302202492951,6.1406666550517075
1681265162695405000,12.067405029296875,6.7355012644380325,-11.0645937135756,5.899678801327943
1681265162705338000,12.077338134765625,4.41139196216166,-12.915679845666885,7.117451832556724
1681265162715272000,12.08727197265625,0.1029132619857788,-16.035628560233114,8.566335466617346
1681265162725205000,12.097205078125,0.09944003291726111,-14.641487739229202,5.794845969456434
1681265162735138000,12.107137939453125,0.6245183845102786,-14.0606904230237,4.009327703557909
1681265162745071900,12.11707177734375,0.0033892040468752383,-14.006633838665485,3.4881066119149327
1681265162755005000,12.1270048828125,-1.0756623158425092,-14.285525598847865,3.570301787781715
1681265162764938000,12.13693798828125,-2.293666817739606,-14.56221020437479,3.7327298995316025
1681265162774872000,12.1468720703125,-3.442581416797638,-14.156837259614466,3.6784757467746734
1681265162784805000,12.15680517578125,-3.0482389846175906,-11.465306849831341,3.8125247362583874
1681265162794738200,12.16673828125,-1.9337281749427317,-8.766216233927011,3.8707963079631327
1681265162804672000,12.176672119140624,-0.08511113637872039,-6.657838179042935,4.259391720923781
1681265162814605000,12.18660498046875,-0.6786566558025777,-3.8104964453011747,6.0060693840354675
1681265162824539000,12.196538818359375,-4.318584499126673,1.4178408455431462,9.839698867642879
1681265162834472000,12.206471923828126,-12.46396366740465,12.114866152095795,16.28038307301402
1681265162844405000,12.216405029296874,-16.880156307846306,26.604223886227608,26.988158906161782
1681265162854338800,12.2263388671875,-14.0987369528234,43.723976885700225,38.27490016391277
1681265162864272000,12.23627197265625,-5.612298614263534,59.10448734049797,42.640853147935864
1681265162874205000,12.246204833984375,9.467636071810126,64.4230239577055,34.815070675194264
1681265162884139000,12.256138916015624,32.90565042755603,46.860722421288486,13.545450743877886
1681265162894072000,12.266072021484375,38.35798644340038,20.860573851001263,1.1556214032202958
1681265162904005000,12.276005126953125,24.66889996652603,9.477319261434674,-0.6520347524672746
1681265162913939000,12.28593896484375,11.476505120193957,4.911942606219649,-0.5389245061159134
1681265162923872000,12.2958720703125,1.4370926585018633,2.2630688503801824,-0.5813432596504688
1681265162933805800,12.305805908203125,-6.850923879384994,0.668341744145751,-0.685441932028532
1681265162943739000,12.31573876953125,-12.477822681409119,-0.7349585348695516,-1.4058113850533962
1681265162953672000,12.325671875,-15.654703828030824,-2.097736833882332,-2.595944714206457
1681265162963605800,12.335605712890626,-18.732188196355104,-3.498302134975791,-3.906927944052219
1681265162973538800,12.345538818359374,-22.807525080132482,-4.725398290345073,-4.913820090529322
1681265162983471900,12.355471923828125,-29.14688943018913,-5.617603734934329,-5.611438198041916
1681265162993406000,12.365406005859375,-31.263702720463275,-6.54829702335,-6.400336997413635
1681265163003339000,12.375339111328126,-20.37034469447136,-8.451472823640703,-8.412906653881073
1681265163013272000,12.38527197265625,19.32262194043398,-20.224394254791736,-17.11844250139594
1681265163023206000,12.395205810546875,37.79481129312515,-31.55138335177898,-20.749374406707286
1681265163033139000,12.405138916015625,12.124357618540525,-26.69084067792892,-13.38121295235753
1681265163043072000,12.415072021484375,2.3742202177487313,-22.571913658750056,-8.804982310172916
1681265163053005800,12.425005859375,6.137402684819698,-21.0814716873765,-6.386167017763853
1681265163062939000,12.43493896484375,10.178919132059812,-19.1656965177536,-3.3546827685922382
1681265163072873000,12.444873046875,13.184260639715195,-14.479025725209713,1.3370514448210595
1681265163082805800,12.4548056640625,9.243265590888262,-7.744189646682143,6.915306042924523
1681265163092738800,12.46473876953125,-11.65718317438364,-7.201678514251112,7.617607339817285
1681265163102673200,12.474673095703125,-22.550211530029774,-8.261597902038693,4.699505724197626
1681265163112606000,12.48460595703125,-16.4486096419096,-8.495041916254163,2.8063860384970902
1681265163122539000,12.4945390625,-8.056891906529664,-8.25565097633302,1.175117838589847
1681265163132473000,12.50447314453125,-1.5576818624317645,-7.098606846833229,-1.3909212744355202
1681265163142406000,12.514406005859374,5.211806427282094,-5.359365471202135,-4.188828238400816
1681265163152339000,12.5243388671875,6.914837840890884,-3.2448224639475343,-5.906670267650485
1681265163162273000,12.53427294921875,3.008846300905943,-3.606264497044682,-6.624716246163844
1681265163172205800,12.544205810546876,-2.599529002434015,-3.5837598197698592,-6.940428793743252
1681265163182140000,12.554139892578124,-6.2219455928564065,-1.7655308321416376,-7.281476858109236
1681265163192073000,12.564072998046875,-6.773717305585742,1.165994328674674,-7.514685310003161
1681265163202005800,12.574005859375,-6.782099934005737,5.583480516058207,-7.883705084878206
1681265163211940000,12.583940185546876,-8.235485555660723,13.445775733160971,-8.4269550529778
1681265163221873200,12.593873046875,-9.823958862197399,23.96252864371538,-7.62992496959865
1681265163231806000,12.603805908203125,-11.674960823136567,34.910364109826084,-5.126992885610461
1681265163241740000,12.613739990234375,-13.291998545378446,42.11833266413212,-1.2095467624142766
1681265163251673000,12.623673095703126,-12.59333823533654,43.90841926085949,3.237093038739264
1681265163261606000,12.63360595703125,-9.30185046632588,39.49859907805919,7.316838678869605
1681265163271540000,12.6435400390625,4.957040808096528,28.771843819153307,12.879516645395755
