time,seconds_elapsed,z,y,x
1681265150645040400,0.017040283203125,-1.0606842041015625,-0.2552337646484375,0.26422119140625
1681265150654974200,0.02697412109375,-1.0601043701171875,-0.2802276611328125,0.229888916015625
1681265150664907300,0.0369072265625,-0.936859130859375,-0.2436370849609375,0.216033935546875
1681265150674840300,0.04684033203125,-0.906280517578125,-0.20404052734375,0.1787109375
1681265150684774100,0.056774169921875,-0.898162841796875,-0.1742706298828125,0.194793701171875
1681265150694707200,0.066707275390625,-0.9141998291015625,-0.148468017578125,0.224822998046875
1681265150704640300,0.07664013671875,-0.938507080078125,-0.1382904052734375,0.2620849609375
1681265150714574000,0.086573974609375,-0.978851318359375,-0.1486663818359375,0.3079986572265625
1681265150724507400,0.09650732421875,-1.058441162109375,-0.1643829345703125,0.301361083984375
1681265150734440400,0.1064404296875,-1.0163726806640625,-0.152679443359375,0.27349853515625
1681265150744374300,0.116374267578125,-0.9131011962890625,-0.1307220458984375,0.2753448486328125
1681265150754307300,0.126307373046875,-0.8979644775390625,-0.1237640380859375,0.2430572509765625
1681265150764240400,0.136240478515625,-0.88336181640625,-0.15350341796875,0.173065185546875
1681265150774174200,0.14617431640625,-0.831298828125,-0.1768646240234375,0.155120849609375
1681265150784107300,0.156107177734375,-0.843048095703125,-0.1670379638671875,0.1528778076171875
1681265150794041000,0.166041015625,-0.9227142333984375,-0.1596221923828125,0.1324920654296875
1681265150803974100,0.17597412109375,-0.9780426025390625,-0.1790771484375,0.082427978515625
1681265150813907200,0.1859072265625,-0.9276885986328125,-0.0625152587890625,0.0605926513671875
1681265150823840300,0.19584033203125,-0.7878570556640625,-0.01617431640625,0.0988922119140625
1681265150833774300,0.2057744140625,-0.785247802734375,-0.175506591796875,0.1560211181640625
1681265150843707400,0.215707275390625,-0.829803466796875,-0.381805419921875,0.08905029296875
1681265150853641200,0.22564111328125,-0.916290283203125,-0.489776611328125,0.0525054931640625
1681265150863574300,0.23557421875,-0.898956298828125,-0.4784393310546875,0.0724029541015625
1681265150873507300,0.24550732421875,-1.107940673828125,-0.494354248046875,0.164581298828125
1681265150883441200,0.255441162109375,-1.282440185546875,-0.3312225341796875,0.2753143310546875
1681265150893374200,0.265374267578125,-1.2875518798828125,-0.2362823486328125,0.264495849609375
1681265150903307300,0.275307373046875,-1.3848876953125,-0.438446044921875,0.3594970703125
1681265150913241000,0.285240966796875,-1.2981719970703125,-0.460784912109375,0.3266143798828125
1681265150923174100,0.295174072265625,-1.2607879638671875,-0.4409637451171875,0.2152099609375
1681265150933107200,0.305107177734375,-1.00372314453125,-0.371063232421875,0.09149169921875
1681265150943041300,0.315041259765625,-0.8665771484375,-0.2795562744140625,0.005706787109375
1681265150952974300,0.324974365234375,-0.756011962890625,-0.217681884765625,-0.0369415283203125
1681265150962907400,0.334907470703125,-0.6255950927734375,-0.2319793701171875,-0.0650787353515625
1681265150972841200,0.34484130859375,-0.627838134765625,-0.3281097412109375,-0.0830535888671875
1681265150982774300,0.354774169921875,-0.7020111083984375,-0.3697052001953125,-0.056121826171875
1681265150992707300,0.364707275390625,-0.762969970703125,-0.3531951904296875,-0.005157470703125
1681265151002641200,0.37464111328125,-0.88299560546875,-0.318359375,0.0568389892578125
1681265151012574200,0.38457421875,-0.9632110595703125,-0.2947845458984375,0.1142425537109375
1681265151022507300,0.39450732421875,-1.00152587890625,-0.3146820068359375,0.12469482421875
1681265151032441000,0.404441162109375,-1.029449462890625,-0.3468170166015625,0.1436767578125
1681265151042374100,0.4143740234375,-1.0311431884765625,-0.363525390625,0.1591033935546875
1681265151052307200,0.42430712890625,-1.0509033203125,-0.3766937255859375,0.157470703125
1681265151062241300,0.4342412109375,-1.024383544921875,-0.3855133056640625,0.1561279296875
1681265151072174300,0.44417431640625,-0.942047119140625,-0.3686676025390625,0.1487579345703125
1681265151082107400,0.454107421875,-0.889892578125,-0.335479736328125,0.133544921875
1681265151092041200,0.464041259765625,-0.877655029296875,-0.30517578125,0.1293792724609375
1681265151101974300,0.473974365234375,-0.8885345458984375,-0.253753662109375,0.15087890625
1681265151111907300,0.4839072265625,-0.93426513671875,-0.2057342529296875,0.16998291015625
1681265151121841200,0.493841064453125,-0.98992919921875,-0.1516571044921875,0.1655120849609375
1681265151131774200,0.503774169921875,-0.99273681640625,-0.08905029296875,0.1309051513671875
1681265151141708000,0.5137080078125,-0.888702392578125,-0.0978546142578125,0.0662384033203125
1681265151151641000,0.52364111328125,-0.825042724609375,-0.234832763671875,-0.0327301025390625
1681265151161574100,0.53357421875,-0.7971343994140625,-0.3700714111328125,-0.0220184326171875
1681265151171508200,0.54350830078125,-0.82745361328125,-0.4461822509765625,0.0175933837890625
1681265151181441300,0.553441162109375,-0.8475799560546875,-0.507568359375,0.066802978515625
1681265151191374300,0.563374267578125,-0.8419647216796875,-0.4838104248046875,0.127655029296875
1681265151201308200,0.57330810546875,-0.896820068359375,-0.4356842041015625,0.152069091796875
1681265151211241200,0.5832412109375,-1.025054931640625,-0.3854217529296875,0.20745849609375
1681265151221174300,0.59317431640625,-1.1179962158203125,-0.3581695556640625,0.280120849609375
1681265151231108000,0.603108154296875,-1.1811981201171875,-0.347412109375,0.3228912353515625
1681265151241041200,0.613041259765625,-1.1442413330078125,-0.3296966552734375,0.29693603515625
1681265151250974200,0.62297412109375,-1.1274261474609375,-0.3000335693359375,0.22320556640625
1681265151260908000,0.632907958984375,-1.1376190185546875,-0.40716552734375,0.19891357421875
1681265151270841000,0.642841064453125,-1.037322998046875,-0.4376373291015625,0.23907470703125
1681265151280774100,0.652774169921875,-0.9316253662109375,-0.4249725341796875,0.2775421142578125
1681265151290708200,0.662708251953125,-0.9515228271484375,-0.42236328125,0.2487640380859375
1681265151300641300,0.672641357421875,-0.9362335205078125,-0.394927978515625,0.2109832763671875
1681265151310574300,0.68257421875,-0.8777008056640625,-0.3339996337890625,0.170684814453125
1681265151320508200,0.692508056640625,-0.889556884765625,-0.3092193603515625,0.1591033935546875
1681265151330441200,0.702441162109375,-1.068328857421875,-0.3506011962890625,0.140106201171875
1681265151340374300,0.712374267578125,-1.0917816162109375,-0.3174285888671875,0.10186767578125
1681265151350308000,0.72230810546875,-1.0420989990234375,-0.228668212890625,0.102325439453125
1681265151360241200,0.7322412109375,-1.0434112548828125,-0.1655426025390625,0.0833282470703125
1681265151370174200,0.74217431640625,-1.052520751953125,-0.13421630859375,0.0772247314453125
1681265151380108000,0.75210791015625,-1.1125640869140625,-0.14190673828125,0.0926361083984375
1681265151390041000,0.762041015625,-1.1609039306640625,-0.1687774658203125,0.1089019775390625
1681265151399974100,0.77197412109375,-1.2010040283203125,-0.1950531005859375,0.111785888671875
1681265151409908200,0.781908203125,-1.17474365234375,-0.21795654296875,0.0889129638671875
1681265151419841300,0.79184130859375,-1.07672119140625,-0.23101806640625,0.0390625
1681265151429774300,0.8017744140625,-1.03277587890625,-0.250152587890625,-0.021331787109375
1681265151439708200,0.811708251953125,-0.9786529541015625,-0.231842041015625,-0.0652008056640625
1681265151449641200,0.82164111328125,-0.9872589111328125,-0.187835693359375,-0.077972412109375
1681265151459574300,0.83157421875,-1.0379486083984375,-0.1442718505859375,-0.075653076171875
1681265151469508000,0.841508056640625,-1.0316162109375,-0.1134490966796875,-0.0689849853515625
1681265151479441200,0.851441162109375,-0.9975128173828125,-0.1097412109375,-0.0433502197265625
1681265151489374200,0.861374267578125,-0.9965972900390625,-0.1441497802734375,-0.033172607421875
1681265151499308000,0.87130810546875,-1.018890380859375,-0.1864166259765625,-0.0437774658203125
1681265151509241000,0.881240966796875,-1.000091552734375,-0.20855712890625,-0.037506103515625
1681265151519174100,0.891174072265625,-0.97528076171875,-0.2106781005859375,-0.0159454345703125
1681265151529108200,0.901108154296875,-0.9934234619140625,-0.22283935546875,0.0141143798828125
1681265151539041300,0.911041259765625,-1.00982666015625,-0.222900390625,0.0260009765625
1681265151548974300,0.920974365234375,-0.9954681396484375,-0.1996002197265625,0.01953125
1681265151558908200,0.930908203125,-1.01239013671875,-0.17828369140625,0.0270233154296875
1681265151568841200,0.94084130859375,-0.977783203125,-0.208709716796875,0.005157470703125
1681265151578775000,0.950775146484375,-0.95245361328125,-0.2165374755859375,-0.0277099609375
1681265151588708000,0.9607080078125,-0.953765869140625,-0.1903839111328125,-0.018310546875
1681265151598641200,0.97064111328125,-0.9735565185546875,-0.1617889404296875,0.0123748779296875
1681265151608575200,0.9805751953125,-0.9804229736328125,-0.1386260986328125,0.05389404296875
1681265151618508000,0.990508056640625,-0.968841552734375,-0.14056396484375,0.0542449951171875
1681265151628441000,1.000441162109375,-0.942718505859375,-0.1864166259765625,0.02496337890625
1681265151638375200,1.010375244140625,-0.900299072265625,-0.21954345703125,-0.0176849365234375
1681265151648308000,1.020307861328125,-0.890380859375,-0.2301788330078125,-0.01666259765625
1681265151658241000,1.030240966796875,-0.8972320556640625,-0.2350006103515625,0.024444580078125
1681265151668175000,1.040175048828125,-0.8679046630859375,-0.2561187744140625,0.0374908447265625
1681265151678108000,1.05010791015625,-0.86395263671875,-0.290618896484375,0.0022430419921875
1681265151688041000,1.060041015625,-0.88311767578125,-0.277923583984375,-0.0180511474609375
1681265151697975000,1.06997509765625,-0.8982696533203125,-0.227813720703125,-0.010406494140625
1681265151707908000,1.079908203125,-0.927581787109375,-0.1933746337890625,-0.0233001708984375
1681265151717841200,1.089841064453125,-0.917633056640625,-0.184906005859375,-0.034332275390625
1681265151727775000,1.09977490234375,-0.8833770751953125,-0.196624755859375,-0.062469482421875
1681265151737708000,1.1097080078125,-0.8651275634765625,-0.19140625,-0.0716705322265625
1681265151747641000,1.11964111328125,-0.8567352294921875,-0.16241455078125,-0.0530242919921875
1681265151757575000,1.129574951171875,-0.8413238525390625,-0.165283203125,-0.04571533203125
1681265151767508000,1.139508056640625,-0.8661651611328125,-0.2424468994140625,-0.0494384765625
1681265151777441000,1.14944091796875,-0.9286651611328125,-0.3204803466796875,-0.0239410400390625
1681265151787374800,1.159374755859375,-0.9882659912109375,-0.348114013671875,0.03070068359375
1681265151797308200,1.16930810546875,-1.0100555419921875,-0.33892822265625,0.073455810546875
1681265151807241200,1.1792412109375,-0.9936676025390625,-0.3197784423828125,0.0994720458984375
1681265151817175000,1.189175048828125,-0.969879150390625,-0.3528289794921875,0.06396484375
1681265151827108000,1.199108154296875,-0.9350128173828125,-0.40118408203125,0.0020294189453125
1681265151837041200,1.209041259765625,-0.911468505859375,-0.42279052734375,-0.0365447998046875
1681265151846975000,1.21897509765625,-0.91339111328125,-0.398834228515625,-0.020050048828125
1681265151856908000,1.228907958984375,-0.9288177490234375,-0.374755859375,0.0064239501953125
1681265151866841000,1.238841064453125,-0.9456939697265625,-0.368377685546875,0.00408935546875
1681265151876775000,1.24877490234375,-0.937774658203125,-0.359161376953125,-0.0243072509765625
1681265151886708000,1.2587080078125,-0.9128265380859375,-0.3480377197265625,-0.05072021484375
1681265151896641000,1.26864111328125,-0.892822265625,-0.34124755859375,-0.06573486328125
1681265151906575000,1.2785751953125,-0.9362030029296875,-0.3398895263671875,-0.0542755126953125
1681265151916508200,1.288508056640625,-0.98785400390625,-0.3451385498046875,-0.0386962890625
1681265151926441200,1.298441162109375,-1.0167083740234375,-0.345489501953125,-0.03021240234375
1681265151936375000,1.308375,-1.027252197265625,-0.338653564453125,-0.03863525390625
1681265151946308000,1.31830810546875,-1.0072021484375,-0.328704833984375,-0.04315185546875
1681265151956241200,1.3282412109375,-0.975311279296875,-0.3327178955078125,-0.065765380859375
1681265151966175000,1.338175048828125,-0.9126434326171875,-0.3278656005859375,-0.0921173095703125
1681265151976108000,1.34810791015625,-0.853759765625,-0.3119354248046875,-0.138397216796875
1681265151986041000,1.358041015625,-0.8562774658203125,-0.3251953125,-0.1234283447265625
1681265151995975000,1.367974853515625,-0.875732421875,-0.367523193359375,-0.0934295654296875
1681265152005908000,1.377907958984375,-0.9135589599609375,-0.4013214111328125,-0.0616302490234375
1681265152015841000,1.387841064453125,-0.9253082275390625,-0.4098663330078125,-0.0409698486328125
1681265152025775000,1.397775146484375,-0.8990936279296875,-0.4085845947265625,-0.036376953125
1681265152035708200,1.407708251953125,-0.8817138671875,-0.3606719970703125,-0.0472564697265625
1681265152045641200,1.41764111328125,-0.894989013671875,-0.3414306640625,-0.054779052734375
1681265152055575000,1.427574951171875,-0.8989105224609375,-0.324432373046875,-0.0532989501953125
1681265152065508000,1.437508056640625,-0.8931121826171875,-0.2953033447265625,-0.04327392578125
1681265152075441200,1.447441162109375,-0.8915252685546875,-0.287811279296875,-0.0360260009765625
1681265152085375000,1.457375,-0.8835296630859375,-0.31146240234375,-0.031768798828125
1681265152095308000,1.46730810546875,-0.8704833984375,-0.3199615478515625,-0.0174560546875
1681265152105241000,1.477240966796875,-0.8459320068359375,-0.3173980712890625,-0.016571044921875
1681265152115175000,1.4871748046875,-0.8115386962890625,-0.3403778076171875,-0.0241241455078125
1681265152125108000,1.49710791015625,-0.76800537109375,-0.3462677001953125,-0.0366363525390625
1681265152135041000,1.507041015625,-0.7455596923828125,-0.34783935546875,-0.0574798583984375
1681265152144975000,1.51697509765625,-0.753021240234375,-0.3501434326171875,-0.0749053955078125
1681265152154908200,1.526908203125,-0.7737579345703125,-0.3419342041015625,-0.0848846435546875
1681265152164841200,1.53684130859375,-0.7974090576171875,-0.331085205078125,-0.0858612060546875
1681265152174775000,1.546775146484375,-0.81494140625,-0.3207244873046875,-0.0853118896484375
1681265152184708000,1.5567080078125,-0.82843017578125,-0.3184967041015625,-0.0908660888671875
1681265152194641200,1.56664111328125,-0.849090576171875,-0.325225830078125,-0.0925750732421875
1681265152204575000,1.576574951171875,-0.8862762451171875,-0.3280487060546875,-0.083038330078125
1681265152214508000,1.586508056640625,-0.91741943359375,-0.312469482421875,-0.0553131103515625
1681265152224441000,1.596441162109375,-0.985382080078125,-0.306488037109375,-0.0540924072265625
1681265152234375000,1.606375,-1.0180511474609375,-0.322479248046875,-0.05029296875
1681265152244308000,1.616307861328125,-1.0050201416015625,-0.3662567138671875,-0.075347900390625
1681265152254241000,1.626240966796875,-0.9709320068359375,-0.4031829833984375,-0.088470458984375
1681265152264175000,1.636175048828125,-0.9769287109375,-0.40362548828125,-0.0860137939453125
1681265152274108200,1.646108154296875,-0.994598388671875,-0.3860931396484375,-0.081878662109375
1681265152284041200,1.656041259765625,-0.9892120361328125,-0.3762054443359375,-0.08612060546875
1681265152293975000,1.66597509765625,-1.0023040771484375,-0.379150390625,-0.0932464599609375
1681265152303908000,1.675908203125,-1.03265380859375,-0.3852691650390625,-0.0921478271484375
1681265152313841200,1.685841064453125,-1.0583343505859375,-0.4022979736328125,-0.079315185546875
1681265152323775000,1.69577490234375,-1.0486602783203125,-0.42156982421875,-0.0679779052734375
1681265152333708000,1.7057080078125,-1.0162353515625,-0.4479827880859375,-0.066314697265625
1681265152343641000,1.71564111328125,-0.9949951171875,-0.47271728515625,-0.069000244140625
1681265152353575000,1.725574951171875,-0.983489990234375,-0.48028564453125,-0.0634765625
1681265152363508000,1.735508056640625,-0.999755859375,-0.4706573486328125,-0.037139892578125
1681265152373441000,1.74544091796875,-1.0268707275390625,-0.4559783935546875,-0.0175933837890625
1681265152383375000,1.755375,-1.0730438232421875,-0.4420623779296875,-0.0011444091796875
1681265152393308200,1.76530810546875,-1.109466552734375,-0.42095947265625,0.018035888671875
1681265152403241200,1.7752412109375,-1.1031494140625,-0.3994598388671875,0.029388427734375
1681265152413175000,1.785175048828125,-1.0794525146484375,-0.396331787109375,0.0323638916015625
1681265152423108000,1.795108154296875,-1.0671234130859375,-0.403839111328125,0.03204345703125
1681265152433041200,1.805041259765625,-1.000640869140625,-0.389068603515625,0.033355712890625
1681265152442975000,1.81497509765625,-0.94482421875,-0.3962860107421875,0.0270538330078125
1681265152452908000,1.824907958984375,-1.0025787353515625,-0.417877197265625,0.0130615234375
1681265152462841000,1.834841064453125,-0.9458160400390625,-0.36773681640625,0.00341796875
1681265152472775000,1.84477490234375,-0.9339141845703125,-0.353302001953125,0.0018768310546875
1681265152482708000,1.8547080078125,-0.9953155517578125,-0.3990325927734375,0.016998291015625
1681265152492641000,1.86464111328125,-1.017730712890625,-0.400848388671875,0.0167999267578125
1681265152502575000,1.8745751953125,-0.9860382080078125,-0.404296875,0.0389862060546875
1681265152512508200,1.884508056640625,-0.954254150390625,-0.42486572265625,0.0673065185546875
1681265152522441200,1.894441162109375,-0.9421844482421875,-0.4487152099609375,0.0802459716796875
1681265152532375000,1.904375,-0.9423828125,-0.45025634765625,0.0903778076171875
1681265152542308000,1.91430810546875,-0.9460601806640625,-0.40643310546875,0.1055755615234375
1681265152552241200,1.9242412109375,-0.9085540771484375,-0.2930908203125,0.1443328857421875
1681265152562175000,1.934175048828125,-0.9404296875,-0.2545318603515625,0.166015625
1681265152572108000,1.94410791015625,-1.0318756103515625,-0.3342742919921875,0.14312744140625
1681265152582041000,1.954041015625,-1.063507080078125,-0.4299774169921875,0.0923309326171875
1681265152591975000,1.963974853515625,-1.0263214111328125,-0.466278076171875,0.063018798828125
1681265152601908200,1.973908203125,-0.9366607666015625,-0.41546630859375,0.1065826416015625
1681265152611841300,1.98384130859375,-0.8788299560546875,-0.34808349609375,0.1839599609375
1681265152621775000,1.993775146484375,-0.9084014892578125,-0.3222808837890625,0.231353759765625
1681265152631708200,2.003708251953125,-0.9249114990234375,-0.3236846923828125,0.2447357177734375
1681265152641641200,2.01364111328125,-0.93817138671875,-0.326873779296875,0.229339599609375
1681265152651575000,2.023574951171875,-0.9437408447265625,-0.3042144775390625,0.220123291015625
1681265152661508000,2.033508056640625,-0.94061279296875,-0.24005126953125,0.2234954833984375
1681265152671441200,2.043441162109375,-0.97418212890625,-0.17529296875,0.2462005615234375
1681265152681375000,2.053375,-1.001617431640625,-0.1449432373046875,0.2684783935546875
1681265152691308000,2.06330810546875,-0.9957275390625,-0.1524200439453125,0.2742156982421875
1681265152701241000,2.073240966796875,-0.97137451171875,-0.1873626708984375,0.266815185546875
1681265152711175000,2.0831748046875,-0.9208526611328125,-0.2354278564453125,0.2381591796875
1681265152721108000,2.09310791015625,-0.86761474609375,-0.26873779296875,0.214080810546875
1681265152731041000,2.103041015625,-0.825927734375,-0.2721710205078125,0.2025299072265625
1681265152740975000,2.11297509765625,-0.8076629638671875,-0.2603607177734375,0.1998748779296875
1681265152750908200,2.122908203125,-0.811676025390625,-0.2593536376953125,0.198638916015625
1681265152760841200,2.13284130859375,-0.8405609130859375,-0.2747802734375,0.200286865234375
1681265152770775000,2.142775146484375,-0.8773651123046875,-0.2874603271484375,0.2040863037109375
1681265152780708000,2.1527080078125,-0.900482177734375,-0.2875213623046875,0.2053070068359375
1681265152790641200,2.16264111328125,-0.8962860107421875,-0.2852935791015625,0.1868743896484375
1681265152800574000,2.172573974609375,-0.892547607421875,-0.277587890625,0.1648406982421875
1681265152810508000,2.182508056640625,-0.8884124755859375,-0.2693939208984375,0.1537322998046875
1681265152820441000,2.192441162109375,-0.8736419677734375,-0.2755584716796875,0.1408843994140625
1681265152830374000,2.202373779296875,-0.872802734375,-0.2935791015625,0.1301116943359375
1681265152840308000,2.212307861328125,-0.895233154296875,-0.3110198974609375,0.136322021484375
1681265152850241000,2.222240966796875,-0.9085845947265625,-0.3116607666015625,0.1504058837890625
1681265152860173800,2.232173828125,-0.89910888671875,-0.3145599365234375,0.162353515625
1681265152870108200,2.242108154296875,-0.898345947265625,-0.3258514404296875,0.16998291015625
1681265152880041200,2.252041259765625,-0.9158477783203125,-0.3315582275390625,0.1645660400390625
1681265152889974000,2.26197412109375,-0.930999755859375,-0.313262939453125,0.154632568359375
1681265152899908000,2.271908203125,-0.9534759521484375,-0.280364990234375,0.1528778076171875
1681265152909841200,2.281841064453125,-0.983154296875,-0.2525787353515625,0.15057373046875
1681265152919774000,2.29177392578125,-0.9853057861328125,-0.2384490966796875,0.147369384765625
1681265152929708000,2.3017080078125,-0.960784912109375,-0.248077392578125,0.1483306884765625
1681265152939641000,2.31164111328125,-0.941192626953125,-0.28546142578125,0.1467437744140625
1681265152949574000,2.321573974609375,-0.92169189453125,-0.3196258544921875,0.1385345458984375
1681265152959508000,2.331508056640625,-0.9092254638671875,-0.3322601318359375,0.140777587890625
1681265152969441000,2.34144091796875,-0.9212646484375,-0.3378448486328125,0.15106201171875
1681265152979373800,2.351373779296875,-0.9266204833984375,-0.348846435546875,0.1459808349609375
1681265152989308200,2.36130810546875,-0.9164276123046875,-0.362945556640625,0.123748779296875
1681265152999241200,2.3712412109375,-0.8632049560546875,-0.369964599609375,0.0794525146484375
1681265153009174000,2.381174072265625,-0.812347412109375,-0.3788909912109375,0.02728271484375
1681265153019108000,2.391108154296875,-0.783111572265625,-0.3774566650390625,0.0065765380859375
1681265153029041200,2.401041259765625,-0.7708587646484375,-0.3789520263671875,0.0095977783203125
1681265153038974000,2.410973876953125,-0.7830963134765625,-0.38568115234375,0.0294952392578125
1681265153048908000,2.420907958984375,-0.8270263671875,-0.3869476318359375,0.0459747314453125
1681265153058841000,2.430841064453125,-0.876434326171875,-0.3730316162109375,0.0791473388671875
1681265153068774000,2.44077392578125,-0.9275970458984375,-0.362030029296875,0.1053466796875
1681265153078708000,2.4507080078125,-0.9672393798828125,-0.380218505859375,0.1034088134765625
1681265153088641000,2.46064111328125,-0.989501953125,-0.3897247314453125,0.0888519287109375
1681265153098574000,2.470573974609375,-0.977935791015625,-0.3743438720703125,0.0784759521484375
1681265153108508200,2.480508056640625,-0.95391845703125,-0.351287841796875,0.0692138671875
1681265153118441200,2.490441162109375,-0.9042510986328125,-0.3560791015625,0.0521697998046875
1681265153128374000,2.5003740234375,-0.8513031005859375,-0.376617431640625,0.03082275390625
1681265153138308000,2.51030810546875,-0.8164520263671875,-0.3966522216796875,0.016937255859375
1681265153148241200,2.5202412109375,-0.78619384765625,-0.4103240966796875,0.008636474609375
1681265153158174000,2.530174072265625,-0.7950897216796875,-0.4236297607421875,0.0183563232421875
1681265153168107000,2.54010693359375,-0.83782958984375,-0.4250335693359375,0.035888671875
1681265153178041000,2.550041015625,-0.89959716796875,-0.412750244140625,0.0427093505859375
1681265153187974000,2.559973876953125,-0.9523468017578125,-0.4027557373046875,0.044769287109375
1681265153197907000,2.569906982421875,-0.957489013671875,-0.398101806640625,0.0453643798828125
1681265153207841300,2.57984130859375,-0.9527740478515625,-0.3949737548828125,0.0400238037109375
1681265153217774000,2.589774169921875,-0.9552001953125,-0.393890380859375,0.024658203125
1681265153227707100,2.59970703125,-0.943695068359375,-0.382537841796875,0.02593994140625
1681265153237641200,2.60964111328125,-0.949737548828125,-0.3681182861328125,0.0508575439453125
1681265153247574000,2.619573974609375,-0.9348602294921875,-0.374542236328125,0.06414794921875
1681265153257507000,2.629507080078125,-0.91656494140625,-0.378082275390625,0.0731353759765625
1681265153267441200,2.639441162109375,-0.935699462890625,-0.369720458984375,0.080902099609375
1681265153277374000,2.6493740234375,-0.94805908203125,-0.3538970947265625,0.065673828125
1681265153287307000,2.65930712890625,-0.9377593994140625,-0.327972412109375,0.03973388671875
1681265153297241000,2.669240966796875,-0.917572021484375,-0.2802581787109375,0.020751953125
1681265153307174000,2.679173828125,-0.9245147705078125,-0.25628662109375,0.0516204833984375
1681265153317107000,2.68910693359375,-0.993988037109375,-0.2651519775390625,0.108428955078125
1681265153327041000,2.699041015625,-1.0380706787109375,-0.2852325439453125,0.1300811767578125
1681265153336974000,2.70897412109375,-1.075408935546875,-0.323486328125,0.1124114990234375
1681265153346907100,2.7189072265625,-1.07879638671875,-0.35186767578125,0.086090087890625
1681265153356841000,2.728841064453125,-1.0138702392578125,-0.32623291015625,0.0794677734375
1681265153366774000,2.73877392578125,-0.9835052490234375,-0.3004150390625,0.0831298828125
1681265153376707000,2.74870703125,-1.0030517578125,-0.2846832275390625,0.0802459716796875
1681265153386641200,2.75864111328125,-1.0239105224609375,-0.2550506591796875,0.08489990234375
1681265153396574000,2.768573974609375,-1.04638671875,-0.2317047119140625,0.0726165771484375
1681265153406507000,2.778507080078125,-1.027984619140625,-0.1588287353515625,0.0647430419921875
1681265153416441000,2.788441162109375,-1.006927490234375,-0.1215057373046875,0.0722198486328125
1681265153426374000,2.798373779296875,-1.04730224609375,-0.1333160400390625,0.07965087890625
1681265153436307000,2.808306884765625,-1.061492919921875,-0.0608367919921875,0.0673828125
1681265153446241000,2.818240966796875,-1.082763671875,-0.113433837890625,0.0903778076171875
1681265153456174000,2.828174072265625,-1.1210784912109375,-0.1456298828125,0.1078338623046875
1681265153466107100,2.838107177734375,-1.0985565185546875,-0.0987548828125,0.1328887939453125
1681265153476041000,2.848041015625,-0.9730987548828125,-0.049835205078125,0.18994140625
1681265153485974000,2.85797412109375,-0.8154754638671875,-0.005401611328125,0.235260009765625
1681265153495907000,2.867906982421875,-0.714569091796875,0.0297393798828125,0.269317626953125
1681265153505840000,2.877840087890625,-0.9513702392578125,0.0301361083984375,0.260345458984375
1681265153515774000,2.88777392578125,-1.0419921875,0.1765594482421875,0.275421142578125
1681265153525707000,2.89770703125,-0.682525634765625,0.477874755859375,0.369415283203125
1681265153535640000,2.90764013671875,-0.58477783203125,0.51190185546875,0.4218597412109375
1681265153545574000,2.917573974609375,-0.509552001953125,0.4475555419921875,0.407684326171875
1681265153555507000,2.9275068359375,-0.2882843017578125,0.4199676513671875,0.3732757568359375
1681265153565440000,2.93743994140625,-0.108001708984375,0.478759765625,0.305633544921875
1681265153575374000,2.9473740234375,0.072235107421875,0.340972900390625,0.24664306640625
1681265153585307100,2.95730712890625,0.2342376708984375,0.04351806640625,0.2602996826171875
1681265153595240200,2.967240234375,0.2787322998046875,-0.003021240234375,0.424102783203125
1681265153605174000,2.977174072265625,0.196075439453125,0.195953369140625,0.557037353515625
1681265153615107000,2.987107177734375,0.0933990478515625,0.3966522216796875,0.5506439208984375
1681265153625041000,2.997041015625,0.069244384765625,0.535614013671875,0.52099609375
1681265153634975000,3.00697509765625,0.059295654296875,0.68328857421875,0.553619384765625
1681265153644908000,3.016907958984375,0.0037689208984375,0.794403076171875,0.6197662353515625
1681265153654840800,3.0268408203125,-0.1430206298828125,0.804107666015625,0.6769866943359375
1681265153664775000,3.03677490234375,-0.3907318115234375,0.7049102783203125,0.759552001953125
1681265153674708000,3.0467080078125,-0.3092498779296875,0.60162353515625,0.949188232421875
1681265153684640800,3.056640869140625,-0.402099609375,0.5048675537109375,1.13543701171875
1681265153694575000,3.0665751953125,-0.6171722412109375,0.3908538818359375,1.330322265625
1681265153704508200,3.076508056640625,-0.780548095703125,0.250823974609375,1.511474609375
1681265153714441000,3.08644091796875,-0.8728179931640625,0.0978851318359375,1.68194580078125
1681265153724375000,3.096375,-0.86761474609375,-0.1057281494140625,1.8774871826171875
1681265153734308000,3.10630810546875,-0.814361572265625,-0.3833465576171875,2.0702972412109375
1681265153744241000,3.116240966796875,-0.7075347900390625,-0.64434814453125,2.15985107421875
1681265153754174000,3.126174072265625,-0.50823974609375,-0.810272216796875,2.1413116455078125
1681265153764108000,3.13610791015625,-0.327667236328125,-0.8764190673828125,2.0906829833984375
1681265153774040800,3.146040771484375,-0.173675537109375,-0.8794097900390625,2.04638671875
1681265153783974000,3.155973876953125,-0.04144287109375,-0.8553314208984375,1.99609375
1681265153793908000,3.165907958984375,0.083648681640625,-0.776123046875,1.934051513671875
1681265153803840800,3.1758408203125,0.2362823486328125,-0.667724609375,1.9177398681640625
1681265153813773800,3.18577392578125,0.3419647216796875,-0.5953216552734375,1.8837127685546875
1681265153823708200,3.195708251953125,0.4099578857421875,-0.5673675537109375,1.8771209716796875
1681265153833641000,3.205640869140625,0.445037841796875,-0.5744171142578125,1.8436279296875
1681265153843574000,3.215573974609375,0.4249267578125,-0.510406494140625,1.7664031982421875
1681265153853508000,3.225508056640625,0.52105712890625,-0.2689666748046875,1.5572052001953125
1681265153863441000,3.23544091796875,0.995513916015625,0.0593109130859375,1.1454925537109375
1681265153873374000,3.2453740234375,0.9305572509765625,-0.01934814453125,0.8636474609375
1681265153883308000,3.25530810546875,0.7588653564453125,-0.139373779296875,0.78759765625
1681265153893240800,3.26524072265625,0.7196807861328125,0.013946533203125,0.7295379638671875
1681265153903174000,3.275173828125,0.54193115234375,0.09075927734375,0.608367919921875
1681265153913108000,3.28510791015625,0.187408447265625,0.135986328125,0.484405517578125
1681265153923040800,3.295040771484375,-0.18634033203125,0.401641845703125,0.3814239501953125
1681265153932973800,3.304973876953125,-0.3673095703125,0.616973876953125,0.2750701904296875
1681265153942908200,3.314908203125,-0.258331298828125,0.6021270751953125,0.13568115234375
1681265153952841000,3.324841064453125,0.0156707763671875,0.52764892578125,0.1972503662109375
1681265153962774000,3.33477392578125,0.2196044921875,0.464141845703125,0.446075439453125
1681265153972708000,3.3447080078125,0.2609405517578125,0.407806396484375,0.741424560546875
1681265153982641000,3.354640869140625,0.23834228515625,0.4706573486328125,1.1059722900390625
1681265153992574000,3.364573974609375,0.134490966796875,0.526123046875,1.3257293701171875
1681265154002507000,3.374507080078125,-0.2553558349609375,0.5181427001953125,1.4817352294921875
1681265154012440800,3.38444091796875,-0.7135772705078125,0.7302398681640625,1.7044677734375
1681265154022374000,3.394373779296875,-0.8108062744140625,0.9016265869140625,1.81549072265625
1681265154032307000,3.404306884765625,-0.2402496337890625,0.6609954833984375,1.6311187744140625
1681265154042240800,3.41424072265625,0.3223876953125,0.43389892578125,1.5191497802734375
1681265154052173800,3.424173828125,0.413421630859375,0.5267333984375,1.5614776611328125
1681265154062107000,3.43410693359375,0.2646484375,0.767486572265625,1.59393310546875
1681265154072041000,3.444041015625,0.068450927734375,0.956573486328125,1.6832122802734375
1681265154081974000,3.45397412109375,0.026611328125,0.98675537109375,1.8288421630859375
1681265154091907000,3.463906982421875,0.2263946533203125,0.8615570068359375,1.81744384765625
1681265154101841000,3.4738408203125,0.7193603515625,0.525726318359375,1.61328125
1681265154111774000,3.48377392578125,0.7817840576171875,0.25982666015625,1.3587646484375
1681265154121707000,3.49370703125,0.272552490234375,0.4218597412109375,1.3551483154296875
1681265154131640800,3.503640869140625,-0.2132415771484375,0.8026275634765625,1.5496368408203125
1681265154141574000,3.513573974609375,-0.104339599609375,0.7265472412109375,1.63116455078125
1681265154151507000,3.5235068359375,-0.03607177734375,0.4991302490234375,1.61492919921875
1681265154161440800,3.533440673828125,-0.1050872802734375,0.2339324951171875,1.68310546875
1681265154171374000,3.5433740234375,-0.1021881103515625,-0.0703887939453125,1.7699432373046875
1681265154181307100,3.55330712890625,-0.4245147705078125,-0.1201324462890625,1.788543701171875
1681265154191241000,3.563240966796875,-0.3087615966796875,-0.4065399169921875,1.408111572265625
1681265154201174000,3.573174072265625,-0.5008392333984375,-0.4556732177734375,0.95159912109375
1681265154211107000,3.583107177734375,-0.376739501953125,-0.625091552734375,0.39666748046875
1681265154221041000,3.593041015625,-0.325347900390625,-0.667877197265625,0.1121673583984375
1681265154230974000,3.602973876953125,0.11505126953125,-0.79876708984375,-0.0782318115234375
1681265154240907000,3.612906982421875,0.442413330078125,-0.83087158203125,-0.17474365234375
1681265154250840800,3.6228408203125,0.6424713134765625,-0.839813232421875,-0.3015594482421875
1681265154260774000,3.63277392578125,0.682769775390625,-0.8549957275390625,-0.1244964599609375
1681265154270707000,3.64270703125,0.73944091796875,-0.8284454345703125,0.2289276123046875
1681265154280641000,3.65264111328125,0.6065673828125,-0.781158447265625,0.5267333984375
1681265154290574000,3.662573974609375,0.419586181640625,-0.56201171875,0.7538604736328125
1681265154300507100,3.672507080078125,0.3031005859375,-0.1745758056640625,0.8469696044921875
1681265154310441000,3.68244091796875,0.4048309326171875,-0.14813232421875,0.82421875
1681265154320374000,3.6923740234375,0.48309326171875,-0.5288543701171875,0.7195281982421875
1681265154330307000,3.70230712890625,0.5353851318359375,-0.5515899658203125,0.9400482177734375
1681265154340240100,3.712240234375,0.2316436767578125,-0.0709381103515625,1.1865692138671875
1681265154350174000,3.722174072265625,-0.200408935546875,0.4534759521484375,1.1603851318359375
1681265154360107000,3.73210693359375,-0.3698883056640625,0.839111328125,1.1968841552734375
1681265154370040000,3.7420400390625,-0.507354736328125,0.8914337158203125,1.1061553955078125
1681265154379974000,3.751973876953125,-0.211669921875,1.2242584228515625,0.961944580078125
1681265154389907000,3.761906982421875,0.3673858642578125,1.5779571533203125,0.7926025390625
1681265154399840000,3.771840087890625,0.7908935546875,1.5602264404296875,0.616607666015625
1681265154409774000,3.781774169921875,0.8583526611328125,1.2929229736328125,0.5198822021484375
1681265154419707100,3.79170703125,0.704833984375,1.2967529296875,0.5732269287109375
1681265154429640000,3.801639892578125,0.5014190673828125,1.595916748046875,0.89007568359375
1681265154439574000,3.811573974609375,0.341278076171875,1.6517181396484375,1.06011962890625
1681265154449507000,3.821507080078125,0.370513916015625,1.489501953125,1.1737518310546875
1681265154459439900,3.83143994140625,0.41802978515625,1.23004150390625,1.33056640625
1681265154469374000,3.8413740234375,0.243621826171875,1.034423828125,1.3397064208984375
1681265154479307000,3.85130712890625,0.1739044189453125,0.7254180908203125,1.4609527587890625
1681265154489239800,3.86123974609375,0.228179931640625,0.4072113037109375,1.521759033203125
1681265154499174000,3.871173828125,0.074615478515625,0.2442474365234375,1.5243377685546875
1681265154509107000,3.88110693359375,0.0003509521484375,0.316192626953125,1.4430084228515625
1681265154519039700,3.891039794921875,0.1746673583984375,0.3002166748046875,1.3469696044921875
1681265154528974000,3.90097412109375,0.2992706298828125,0.3663177490234375,1.1309967041015625
1681265154538907100,3.9109072265625,0.0413360595703125,0.6266937255859375,0.7296600341796875
1681265154548840000,3.92083984375,-0.2499237060546875,0.729339599609375,0.28106689453125
1681265154558774000,3.93077392578125,0.2388458251953125,0.437255859375,-0.0478668212890625
1681265154568707000,3.94070703125,0.428192138671875,0.275787353515625,-0.2162017822265625
1681265154578640000,3.950639892578125,0.2501983642578125,0.3923187255859375,-0.1738433837890625
1681265154588574000,3.960573974609375,0.3091888427734375,0.3602752685546875,-0.109344482421875
1681265154598507000,3.970507080078125,0.1983795166015625,0.3785552978515625,0.0208282470703125
1681265154608439800,3.980439697265625,0.0784149169921875,0.5372314453125,0.1995697021484375
1681265154618374000,3.990373779296875,0.611114501953125,0.5733489990234375,0.3775482177734375
1681265154628306400,4.000306396484375,0.991241455078125,0.66961669921875,0.5816497802734375
1681265154638239500,4.010239501953125,1.4530181884765625,1.2548065185546875,1.0735015869140625
1681265154648173300,4.02017333984375,1.117401123046875,0.94500732421875,1.5163116455078125
1681265154658106400,4.0301064453125,0.5518341064453125,0.4344329833984375,1.8311309814453125
1681265154668039400,4.040039306640625,0.690185546875,0.24468994140625,1.9777069091796875
1681265154677972200,4.04997216796875,0.8625030517578125,0.2792205810546875,1.884857177734375
1681265154687906600,4.059906494140625,0.96563720703125,0.5629425048828125,1.501556396484375
1681265154697839600,4.069839599609375,0.63134765625,0.618408203125,1.1926422119140625
1681265154707772400,4.0797724609375,0.0919189453125,0.5058135986328125,0.83575439453125
1681265154717706500,4.08970654296875,-0.2195587158203125,0.4935760498046875,0.49505615234375
1681265154727639600,4.0996396484375,-0.4084014892578125,0.5267181396484375,0.27557373046875
1681265154737572400,4.109572265625,-0.3297576904296875,0.3828887939453125,0.044342041015625
1681265154747506400,4.11950634765625,-0.2619171142578125,0.3846893310546875,-0.1093902587890625
1681265154757439500,4.129439453125,-0.2918853759765625,0.43585205078125,-0.2077484130859375
1681265154767372300,4.139372314453125,-0.3846435546875,0.46405029296875,-0.264801025390625
1681265154777306400,4.149306396484375,-0.5741729736328125,0.55645751953125,-0.2444305419921875
1681265154787239400,4.159239501953125,-1.9839630126953125,0.9351959228515625,-0.115081787109375
1681265154797172200,4.169172119140625,-1.88104248046875,1.010223388671875,-0.0168304443359375
1681265154807106600,4.1791064453125,-0.648681640625,0.88006591796875,-0.0774993896484375
1681265154817039600,4.18903955078125,-0.0374908447265625,0.8249969482421875,-0.2297210693359375
1681265154826972400,4.198972412109375,0.0656890869140625,0.9270172119140625,-0.21075439453125
1681265154836906500,4.208906494140625,0.1084136962890625,1.2975311279296875,-0.0216064453125
1681265154846839600,4.218839599609375,-0.2846832275390625,2.034393310546875,0.5142364501953125
1681265154856772400,4.2287724609375,-0.5839080810546875,1.845184326171875,0.68096923828125
1681265154866706400,4.23870654296875,-0.7640838623046875,1.1620025634765625,0.56787109375
1681265154876639500,4.248639404296875,-0.6233062744140625,0.8430023193359375,0.4050140380859375
1681265154886572300,4.258572265625,-0.508880615234375,0.66778564453125,0.233612060546875
1681265154896506400,4.26850634765625,-0.47021484375,0.6513671875,0.098236083984375
1681265154906439400,4.278439453125,-0.3908843994140625,0.623046875,-0.0777740478515625
1681265154916372500,4.28837255859375,-0.234832763671875,0.57427978515625,-0.25921630859375
1681265154926306600,4.298306640625,-0.009368896484375,0.633392333984375,-0.4586029052734375
1681265154936239400,4.3082392578125,0.262237548828125,0.7228546142578125,-0.654693603515625
1681265154946172400,4.31817236328125,0.422760009765625,0.7459716796875,-0.730499267578125
1681265154956106500,4.3281064453125,0.5162200927734375,0.807373046875,-0.694061279296875
1681265154966039300,4.338039306640625,0.4620819091796875,0.8527679443359375,-0.5658111572265625
1681265154975972400,4.347972412109375,0.3078460693359375,0.80645751953125,-0.4414520263671875
1681265154985906400,4.357906494140625,0.1887359619140625,0.754974365234375,-0.366058349609375
1681265154995839200,4.367839111328125,0.09967041015625,0.7818756103515625,-0.3410186767578125
1681265155005772300,4.377772216796875,-0.01043701171875,0.822784423828125,-0.3075714111328125
1681265155015705300,4.387705322265625,-0.2248687744140625,0.8558502197265625,-0.265594482421875
1681265155025639400,4.397639404296875,-0.4527587890625,0.9110870361328125,-0.2149810791015625
1681265155035572500,4.407572509765625,-0.6603546142578125,0.8956298828125,-0.118438720703125
1681265155045505500,4.417505615234375,-0.810760498046875,0.939849853515625,-0.0222320556640625
1681265155055439400,4.427439453125,-0.8323822021484375,1.06781005859375,0.0236358642578125
1681265155065372400,4.437372314453125,-0.7850494384765625,1.1710968017578125,0.062225341796875
1681265155075305500,4.447305419921875,-0.6955413818359375,1.2611541748046875,0.0881500244140625
1681265155085239300,4.4572392578125,-0.580291748046875,1.32635498046875,0.1085968017578125
1681265155095172400,4.46717236328125,-0.464111328125,1.3501739501953125,0.1172637939453125
1681265155105105400,4.47710546875,-0.353515625,1.3343048095703125,0.1325225830078125
1681265155115039200,4.487039306640625,-0.2619476318359375,1.3208465576171875,0.1748504638671875
1681265155124972300,4.49697216796875,-0.2046051025390625,1.3199615478515625,0.2296295166015625
1681265155134905300,4.5069052734375,-0.0281982421875,1.30975341796875,0.3111419677734375
1681265155144839400,4.51683935546875,1.0740966796875,1.2459259033203125,0.4926300048828125
1681265155154772500,4.5267724609375,1.3737945556640625,1.36083984375,0.8626556396484375
1681265155164705500,4.53670556640625,0.65924072265625,1.5145416259765625,1.2066192626953125
1681265155174639400,4.546639404296875,0.15362548828125,1.4631500244140625,1.1905364990234375
1681265155184572400,4.556572509765625,0.2440185546875,1.2902069091796875,0.96295166015625
1681265155194505500,4.56650537109375,0.5444793701171875,1.1249847412109375,0.7498016357421875
1681265155204439300,4.576439208984375,0.76220703125,0.96875,0.589630126953125
1681265155214372400,4.586372314453125,0.718963623046875,0.8663177490234375,0.53759765625
1681265155224305400,4.596305419921875,0.426300048828125,0.8605499267578125,0.5826873779296875
1681265155234239200,4.6062392578125,0.1513214111328125,0.8919219970703125,0.655670166015625
1681265155244172300,4.61617236328125,-0.021026611328125,0.8766326904296875,0.7549285888671875
1681265155254105300,4.626105224609375,-0.1867828369140625,0.7912750244140625,0.8949432373046875
1681265155264039400,4.636039306640625,-0.24383544921875,0.636932373046875,0.9842987060546875
1681265155273972500,4.645972412109375,-0.0471954345703125,0.49102783203125,0.8994293212890625
1681265155283905500,4.655905517578125,0.2032318115234375,0.407318115234375,0.759429931640625
1681265155293838600,4.665838623046875,0.338653564453125,0.407318115234375,0.645782470703125
1681265155303772400,4.6757724609375,0.3010101318359375,0.41387939453125,0.6824493408203125
1681265155313705500,4.68570556640625,0.1024169921875,0.3992767333984375,0.93829345703125
1681265155323638500,4.695638427734375,-0.174530029296875,0.4452972412109375,1.3024749755859375
1681265155333572400,4.705572265625,-0.2165679931640625,0.6113739013671875,1.5321197509765625
1681265155343505400,4.71550537109375,0.04217529296875,0.89764404296875,1.5323638916015625
1681265155353438500,4.7254384765625,0.364013671875,1.1851043701171875,1.476165771484375
1681265155363372300,4.735372314453125,0.50445556640625,1.425323486328125,1.4390716552734375
1681265155373305300,4.745305419921875,0.4139251708984375,1.6684112548828125,1.40020751953125
1681265155383238400,4.75523828125,0.310333251953125,1.818450927734375,1.3092041015625
1681265155393172500,4.76517236328125,0.2490692138671875,1.8609466552734375,1.173095703125
1681265155403105500,4.77510546875,0.23016357421875,1.8783111572265625,1.0557708740234375
1681265155413038600,4.78503857421875,0.22625732421875,1.90093994140625,0.9898834228515625
1681265155422972400,4.794972412109375,0.14453125,1.887969970703125,0.94940185546875
1681265155432905500,4.804905517578125,0.0493621826171875,1.8109588623046875,0.90576171875
1681265155442838500,4.814838623046875,0.0216522216796875,1.6728668212890625,0.8358306884765625
1681265155452772400,4.8247724609375,0.0853271484375,1.514312744140625,0.733642578125
1681265155462705400,4.834705322265625,0.13555908203125,1.3831634521484375,0.6142578125
1681265155472638500,4.844638427734375,0.13385009765625,1.2651519775390625,0.4969329833984375
1681265155482572300,4.854572265625,0.125091552734375,1.1431884765625,0.3955841064453125
1681265155492505300,4.86450537109375,0.056976318359375,1.013824462890625,0.296966552734375
1681265155502438400,4.8744384765625,-0.0255889892578125,0.8729705810546875,0.2021636962890625
1681265155512372500,4.88437255859375,-0.1028289794921875,0.7088775634765625,0.0929412841796875
1681265155522305500,4.894305419921875,-0.1193389892578125,0.5360870361328125,-0.0183563232421875
1681265155532238600,4.904238525390625,-0.1407470703125,0.37921142578125,-0.1249542236328125
1681265155542171400,4.91417138671875,-0.178497314453125,0.21722412109375,-0.23297119140625
1681265155552105500,4.92410546875,-0.14483642578125,0.0811004638671875,-0.330230712890625
1681265155562038500,4.93403857421875,-0.0487060546875,-0.0423736572265625,-0.390533447265625
1681265155571971300,4.943971435546875,0.0888824462890625,-0.209625244140625,-0.3927459716796875
1681265155581905400,4.953905517578125,0.290924072265625,-0.3665618896484375,-0.3406219482421875
1681265155591838500,4.96383837890625,0.508087158203125,-0.499725341796875,-0.222259521484375
1681265155601771300,4.973771240234375,0.7298583984375,-0.6374664306640625,-0.0560150146484375
1681265155611705300,4.983705322265625,0.9412841796875,-0.748809814453125,0.1184844970703125
1681265155621638700,4.993638671875,1.05181884765625,-0.7780914306640625,0.321319580078125
1681265155631574800,5.00357470703125,0.9138336181640625,-0.5652923583984375,0.522247314453125
1681265155641508900,5.0135087890625,0.486724853515625,-0.0811767578125,0.567291259765625
1681265155651442000,5.02344189453125,-0.1488800048828125,0.3538665771484375,0.5552215576171875
1681265155661374700,5.033374755859375,-0.647369384765625,0.5108642578125,0.4798126220703125
1681265155671308800,5.043308837890625,-0.83355712890625,0.55560302734375,0.3290252685546875
1681265155681241900,5.053241943359375,-0.809478759765625,0.6230316162109375,0.140869140625
1681265155691174700,5.063174560546875,-0.2212982177734375,0.8279266357421875,-0.1094818115234375
1681265155701108700,5.073108642578125,2.066650390625,1.34228515625,-0.452850341796875
1681265155711041800,5.083041748046875,1.388153076171875,1.614105224609375,-0.016998291015625
1681265155720974600,5.092974609375,-0.4559173583984375,1.923492431640625,0.1832427978515625
1681265155730909000,5.102908935546875,-0.7234039306640625,2.2061767578125,0.1065521240234375
1681265155740842000,5.112842041015625,-0.8946380615234375,2.1278839111328125,-0.0180816650390625
1681265155750774800,5.12277490234375,-1.1343231201171875,1.67071533203125,-0.0673828125
1681265155760707800,5.132707763671875,-0.866455078125,1.2830352783203125,-0.1268157958984375
1681265155770642000,5.142641845703125,-0.232452392578125,0.9466552734375,-0.2701873779296875
1681265155780574700,5.15257470703125,0.125335693359375,0.782379150390625,-0.3964080810546875
1681265155790507800,5.1625078125,-0.302520751953125,0.9835052490234375,-0.3633575439453125
1681265155800441900,5.17244189453125,-0.3539276123046875,1.2913055419921875,-0.288330078125
1681265155810374700,5.182374755859375,-0.2076568603515625,1.533599853515625,-0.093994140625
1681265155820307700,5.1923076171875,-0.0782928466796875,1.639801025390625,0.221160888671875
1681265155830241800,5.20224169921875,-0.007659912109375,1.81976318359375,0.617523193359375
1681265155840174800,5.2121748046875,-0.388885498046875,2.0438690185546875,0.8525238037109375
1681265155850108000,5.22210791015625,-0.7197265625,2.1759796142578125,0.855255126953125
1681265155860042000,5.2320419921875,-0.7130279541015625,2.334381103515625,0.9434967041015625
1681265155869974800,5.241974853515625,-0.4858551025390625,2.48577880859375,1.2054443359375
1681265155879907800,5.251907958984375,-0.0696258544921875,2.5875396728515625,1.4923858642578125
1681265155889842000,5.261842041015625,0.3221588134765625,2.636871337890625,1.6861572265625
1681265155899774700,5.271774658203125,0.6380157470703125,2.5721588134765625,1.719329833984375
1681265155909707800,5.281707763671875,0.89141845703125,2.2589874267578125,1.58782958984375
1681265155919641900,5.291641845703125,0.935150146484375,1.7298736572265625,1.4178924560546875
1681265155929574700,5.30157470703125,0.7730865478515625,1.2131805419921875,1.2719573974609375
1681265155939507700,5.3115078125,0.679290771484375,0.7914886474609375,1.0833892822265625
1681265155949441800,5.32144189453125,0.6130828857421875,0.5509796142578125,0.92706298828125
1681265155959374800,5.331374755859375,0.4447479248046875,0.55389404296875,0.8810272216796875
1681265155969308000,5.341307861328125,0.298797607421875,0.5709075927734375,0.824737548828125
1681265155979241700,5.35124169921875,0.1844635009765625,0.4664764404296875,0.7607269287109375
1681265155989174800,5.3611748046875,0.0562744140625,0.27911376953125,0.7132415771484375
1681265155999107800,5.37110791015625,0.0127105712890625,0.0329742431640625,0.6956939697265625
1681265156009041000,5.381041015625,0.1851806640625,-0.349853515625,0.748382568359375
1681265156018974700,5.390974609375,0.46417236328125,-0.61737060546875,0.708648681640625
1681265156028907800,5.40090771484375,0.49456787109375,-0.52105712890625,0.553436279296875
1681265156038840800,5.4108408203125,0.3829193115234375,-0.4579010009765625,0.5176544189453125
1681265156048774700,5.420774658203125,0.279022216796875,-0.522674560546875,0.536346435546875
1681265156058707700,5.430707763671875,0.2494964599609375,-0.539886474609375,0.4400177001953125
1681265156068640800,5.440640869140625,0.1737823486328125,-0.4144744873046875,0.2718353271484375
1681265156078574800,5.450574951171875,0.1581268310546875,-0.27130126953125,0.12432861328125
1681265156088508000,5.4605078125,0.1677703857421875,-0.165863037109375,0.04571533203125
1681265156098441000,5.47044091796875,0.1699981689453125,-0.0704498291015625,0.04510498046875
1681265156108374800,5.480374755859375,0.1591796875,0.0056610107421875,0.1256561279296875
1681265156118307800,5.490307861328125,0.1938323974609375,0.0901947021484375,0.229278564453125
1681265156128241000,5.500240966796875,0.2301025390625,0.2013092041015625,0.337188720703125
1681265156138173700,5.510173583984375,0.2202911376953125,0.397491455078125,0.4647674560546875
1681265156148107800,5.520107666015625,-0.068328857421875,0.82611083984375,0.8335418701171875
1681265156158040800,5.530040771484375,-0.25909423828125,1.680450439453125,1.4094696044921875
1681265156167973600,5.5399736328125,-0.270904541015625,2.7776336669921875,2.15728759765625
1681265156177907700,5.54990771484375,0.057891845703125,4.2014923095703125,3.0251617431640625
1681265156187840800,5.5598408203125,0.594451904296875,5.6354217529296875,3.90234375
1681265156197773600,5.569773681640625,0.8592987060546875,5.86004638671875,4.0823516845703125
1681265156207708000,5.5797080078125,1.3110198974609375,3.8428497314453125,2.86602783203125
1681265156217641000,5.589640869140625,1.211273193359375,2.0019683837890625,1.7770538330078125
1681265156227573800,5.59957373046875,0.84185791015625,1.4048004150390625,1.2118377685546875
1681265156237507800,5.6095078125,0.48663330078125,1.188385009765625,0.8976287841796875
1681265156247441000,5.61944091796875,0.05242919921875,1.150146484375,0.707122802734375
1681265156257373700,5.629373779296875,-0.4135894775390625,1.15142822265625,0.56536865234375
1681265156267307800,5.639307861328125,-0.867889404296875,1.0940399169921875,0.4336395263671875
1681265156277240800,5.64924072265625,-1.217803955078125,0.9393768310546875,0.3045654296875
1681265156287173600,5.659173583984375,-1.3863983154296875,0.703948974609375,0.1779937744140625
1681265156297107700,5.669107666015625,-1.2784881591796875,0.46746826171875,0.0585784912109375
1681265156307040800,5.679040771484375,-1.148193359375,0.298858642578125,-0.045928955078125
1681265156316973600,5.6889736328125,-1.20806884765625,0.13299560546875,-0.1070404052734375
1681265156326906600,5.69890673828125,-1.2894287109375,0.0281524658203125,-0.17108154296875
1681265156336841000,5.708841064453125,-1.1224822998046875,-0.0455169677734375,-0.28790283203125
1681265156346773800,5.718773681640625,-0.30682373046875,-0.2965545654296875,-0.5728607177734375
1681265156356706800,5.728706787109375,0.832275390625,-0.6943511962890625,-0.8978118896484375
1681265156366641000,5.738640869140625,0.7870941162109375,-0.93548583984375,-0.93780517578125
1681265156376573700,5.74857373046875,0.5688323974609375,-1.0498504638671875,-0.845977783203125
1681265156386506800,5.7585068359375,0.6823883056640625,-1.1204986572265625,-0.7742462158203125
1681265156396440800,5.76844091796875,1.375457763671875,-1.2406463623046875,-0.6622314453125
1681265156406373600,5.77837353515625,2.3251190185546875,-1.3490447998046875,-0.310546875
1681265156416306700,5.788306640625,1.8903350830078125,-0.6482696533203125,0.33184814453125
1681265156426239700,5.79823974609375,1.4161224365234375,0.136993408203125,0.70855712890625
1681265156436173800,5.808173828125,0.18743896484375,0.334625244140625,0.899383544921875
1681265156446107000,5.81810693359375,-1.7104949951171875,0.193359375,0.5726470947265625
1681265156456040000,5.8280400390625,-1.920257568359375,0.1033172607421875,0.2624053955078125
1681265156465973800,5.837973876953125,-1.384735107421875,0.26605224609375,0.18914794921875
1681265156475906800,5.84790673828125,-0.5385894775390625,0.435394287109375,0.03326416015625
1681265156485840000,5.85783984375,0.498626708984375,0.690582275390625,-0.3077392578125
1681265156495773700,5.867773681640625,1.7979278564453125,1.279327392578125,-0.736572265625
1681265156505706800,5.877706787109375,0.458709716796875,1.1401214599609375,-0.7275543212890625
1681265156515639800,5.887639892578125,-1.1029510498046875,0.654876708984375,-0.5568695068359375
1681265156525573600,5.89757373046875,-1.1526031494140625,0.9063720703125,-0.6597900390625
1681265156535506700,5.907506591796875,-1.045989990234375,1.174652099609375,-0.7698822021484375
1681265156545439700,5.917439697265625,-0.8184661865234375,1.46466064453125,-0.855682373046875
1681265156555373800,5.927373779296875,-0.6570892333984375,1.762847900390625,-0.8483123779296875
1681265156565307000,5.937306884765625,-0.4659271240234375,2.1791839599609375,-0.822296142578125
1681265156575240000,5.947239990234375,-0.254302978515625,2.7664794921875,-0.71124267578125
1681265156585173000,5.957173095703125,-0.0466461181640625,3.3896484375,-0.318634033203125
1681265156595106800,5.96710693359375,0.076416015625,4.0032958984375,0.315673828125
1681265156605039900,5.977039794921875,-0.262420654296875,4.4280853271484375,0.91912841796875
1681265156614973000,5.986972900390625,-0.8514862060546875,4.59869384765625,1.411651611328125
1681265156624906800,5.99690673828125,-0.9723052978515625,4.424774169921875,1.7934722900390625
1681265156634840300,6.00684033203125,-0.256805419921875,3.5664215087890625,1.7920989990234375
1681265156644773000,6.016773193359375,0.6829681396484375,2.3850250244140625,1.4117431640625
1681265156654707200,6.026707275390625,0.96697998046875,1.6577301025390625,1.1787567138671875
1681265156664640300,6.03664013671875,0.981842041015625,1.2096405029296875,1.1067657470703125
1681265156674573000,6.046572998046875,0.9944915771484375,0.939971923828125,0.95135498046875
1681265156684507100,6.056507080078125,0.683685302734375,0.9817352294921875,0.92742919921875
1681265156694440200,6.066440185546875,0.366912841796875,1.044403076171875,0.9559173583984375
1681265156704373200,6.076373291015625,0.135772705078125,0.8845977783203125,0.9559326171875
1681265156714306000,6.08630615234375,0.035430908203125,0.6481170654296875,0.9234771728515625
1681265156724240400,6.096240478515625,0.0015869140625,0.42633056640625,0.870391845703125
1681265156734173200,6.106173095703125,-0.00323486328125,0.0953521728515625,0.9043426513671875
1681265156744106200,6.116106201171875,0.2369842529296875,-0.33251953125,0.95849609375
1681265156754040300,6.126040283203125,0.623138427734375,-0.37506103515625,0.6791229248046875
1681265156763973000,6.13597314453125,0.8716583251953125,-0.43792724609375,0.5597991943359375
1681265156773906200,6.14590625,0.8510894775390625,-0.5965118408203125,0.644989013671875
1681265156783840300,6.15584033203125,0.63006591796875,-0.72210693359375,0.75177001953125
1681265156793773000,6.16577294921875,0.2418975830078125,-0.61541748046875,0.7198486328125
1681265156803706000,6.1757060546875,-0.0556640625,-0.3444061279296875,0.4591827392578125
1681265156813639200,6.18563916015625,-0.0250091552734375,-0.2491607666015625,0.2563629150390625
1681265156823573000,6.195572998046875,-0.0379638671875,-0.193603515625,0.143646240234375
1681265156833506000,6.205506103515625,-0.03192138671875,-0.1578216552734375,0.08746337890625
1681265156843439000,6.215439208984375,-0.024322509765625,-0.1468658447265625,0.07220458984375
1681265156853373200,6.225373291015625,-0.0080413818359375,-0.147186279296875,0.08404541015625
1681265156863306200,6.23530615234375,0.0149078369140625,-0.1080169677734375,0.1249847412109375
1681265156873239300,6.2452392578125,0.0646209716796875,-0.02349853515625,0.1866607666015625
1681265156883173000,6.255173095703125,0.0518035888671875,0.0727081298828125,0.27130126953125
1681265156893106200,6.265106201171875,-0.2827606201171875,0.38226318359375,0.4172821044921875
1681265156903039200,6.275039306640625,-0.97344970703125,0.92755126953125,0.632720947265625
1681265156912972300,6.28497216796875,-1.268310546875,1.57672119140625,1.0182342529296875
1681265156922906000,6.294906005859375,-1.497222900390625,2.58709716796875,1.5478515625
1681265156932839200,6.304839111328125,-1.7122650146484375,3.6038970947265625,2.0099334716796875
1681265156942772200,6.314772216796875,-1.4043121337890625,4.3490142822265625,2.5496673583984375
1681265156952706000,6.3247060546875,-0.3770599365234375,5.27203369140625,3.0641021728515625
1681265156962639400,6.334639404296875,1.3080902099609375,6.11358642578125,3.3068389892578125
1681265156972572400,6.344572509765625,3.8020782470703125,5.8437347412109375,2.61767578125
1681265156982506200,6.35450634765625,3.64324951171875,3.0698089599609375,1.279266357421875
1681265156992439300,6.364439208984375,1.9924163818359375,1.6587677001953125,0.9075927734375
1681265157002372400,6.374372314453125,0.8548736572265625,1.229949951171875,0.7565460205078125
1681265157012306200,6.38430615234375,-0.1328277587890625,1.025909423828125,0.5460205078125
1681265157022239200,6.3942392578125,-0.88623046875,0.8379364013671875,0.36248779296875
1681265157032172300,6.40417236328125,-1.3205413818359375,0.69244384765625,0.196685791015625
1681265157042105000,6.41410498046875,-1.4041290283203125,0.5405120849609375,0.0652618408203125
1681265157052039200,6.4240390625,-1.2925872802734375,0.3792572021484375,-0.0237274169921875
1681265157061972200,6.43397216796875,-1.2760772705078125,0.2538604736328125,-0.0828399658203125
1681265157071905000,6.443905029296875,-1.456085205078125,0.1649932861328125,-0.1475372314453125
1681265157081839400,6.45383935546875,-1.5328369140625,0.082489013671875,-0.253509521484375
1681265157091772400,6.4637724609375,-0.852142333984375,-0.1244659423828125,-0.4891510009765625
1681265157101705200,6.473705322265625,1.03509521484375,-0.6974029541015625,-0.9251708984375
1681265157111639300,6.483639404296875,2.036468505859375,-1.294830322265625,-1.142303466796875
1681265157121572400,6.493572265625,0.815826416015625,-1.2237548828125,-0.8302764892578125
1681265157131505200,6.503505126953125,0.245880126953125,-0.989288330078125,-0.52880859375
1681265157141438200,6.513438232421875,0.698028564453125,-1.0481109619140625,-0.38702392578125
1681265157151372300,6.523372314453125,1.17071533203125,-1.0579986572265625,-0.1329803466796875
1681265157161305000,6.53330517578125,1.15045166015625,-0.7756500244140625,0.203125
1681265157171238100,6.543238037109375,1.0833587646484375,-0.2899169921875,0.5034332275390625
1681265157181172200,6.553172119140625,0.0660552978515625,0.0061798095703125,0.7423095703125
1681265157191105000,6.56310498046875,-1.516082763671875,-0.09368896484375,0.663970947265625
1681265157201038000,6.5730380859375,-1.577606201171875,-0.0913543701171875,0.4577789306640625
1681265157210972400,6.582972412109375,-0.9095916748046875,-0.0285491943359375,0.34417724609375
1681265157220905200,6.5929052734375,-0.380279541015625,0.120697021484375,0.1953277587890625
1681265157230838300,6.60283837890625,0.34893798828125,0.2834320068359375,-0.0066375732421875
1681265157240771300,6.612771240234375,1.1196441650390625,0.437744140625,-0.227203369140625
1681265157250705200,6.622705078125,0.9918365478515625,0.540130615234375,-0.352569580078125
1681265157260638200,6.63263818359375,0.1895294189453125,0.38818359375,-0.322906494140625
1681265157270571300,6.6425712890625,-0.3402099609375,0.3505096435546875,-0.3219146728515625
1681265157280505000,6.652505126953125,-0.7012481689453125,0.5780792236328125,-0.413482666015625
1681265157290438100,6.662438232421875,-0.96124267578125,0.8630218505859375,-0.4766387939453125
1681265157300371200,6.67237109375,-1.060455322265625,1.316497802734375,-0.466766357421875
1681265157310305000,6.682304931640625,-1.1033477783203125,2.080780029296875,-0.4297332763671875
1681265157320238000,6.692238037109375,-1.3169097900390625,3.1602783203125,-0.2934417724609375
1681265157330171100,6.702171142578125,-1.6450042724609375,4.4003143310546875,-0.0698699951171875
1681265157340104200,6.712104248046875,-1.9417572021484375,5.344940185546875,0.251953125
1681265157350038300,6.722038330078125,-1.79498291015625,5.59375,0.544342041015625
1681265157359971300,6.731971435546875,-1.1751556396484375,5.155059814453125,0.7909698486328125
1681265157369904400,6.741904296875,1.5376434326171875,4.303466796875,1.07061767578125
1681265157379838200,6.751838134765625,5.877777099609375,3.1067962646484375,1.342864990234375
1681265157389771300,6.761771240234375,1.55499267578125,2.259063720703125,1.2152557373046875
1681265157399704300,6.771704345703125,-0.5072784423828125,1.85198974609375,0.8819427490234375
1681265157409638100,6.78163818359375,-0.5096893310546875,1.50811767578125,0.6624298095703125
1681265157419571200,6.7915712890625,-0.0478363037109375,1.211822509765625,0.6363067626953125
1681265157429504300,6.801504150390625,0.355133056640625,0.878662109375,0.5933990478515625
1681265157439437000,6.81143701171875,0.3033447265625,0.793792724609375,0.6299896240234375
1681265157449371100,6.82137109375,0.1336669921875,0.8002166748046875,0.6453094482421875
1681265157459304400,6.831304443359375,0.010101318359375,0.7021026611328125,0.6725616455078125
1681265157469237200,6.8412373046875,-0.16156005859375,0.53155517578125,0.75146484375
1681265157479171300,6.85117138671875,-0.1004638671875,0.3787384033203125,0.7632904052734375
1681265157489104400,6.8611044921875,0.1639251708984375,0.2819671630859375,0.6947021484375
1681265157499037200,6.871037109375,0.32110595703125,0.154815673828125,0.6021881103515625
1681265157508971300,6.88097119140625,0.58856201171875,-0.0422821044921875,0.5687713623046875
1681265157518904300,6.890904296875,1.192108154296875,-0.5683746337890625,0.7705078125
1681265157528837000,6.900837158203125,1.0872802734375,-0.658111572265625,0.76202392578125
1681265157538770200,6.910770263671875,0.5584564208984375,-0.455780029296875,0.6770782470703125
1681265157548704300,6.920704345703125,0.06610107421875,-0.3558197021484375,0.6345062255859375
1681265157558637000,6.930636962890625,-0.137451171875,-0.343353271484375,0.462493896484375
1681265157568570000,6.940570068359375,-0.0371551513671875,-0.290557861328125,0.274658203125
1681265157578504400,6.95050439453125,-0.0118560791015625,-0.219207763671875,0.1693115234375
1681265157588437200,6.960437255859375,-0.0263824462890625,-0.2098236083984375,0.1514129638671875
1681265157598370300,6.970370361328125,-0.0618133544921875,-0.24847412109375,0.1780242919921875
1681265157608303400,6.980303466796875,-0.0909881591796875,-0.248931884765625,0.2325286865234375
1681265157618237200,6.9902373046875,-0.0960540771484375,-0.1445770263671875,0.30084228515625
1681265157628166400,7.00016650390625,-0.05908203125,-0.00079345703125,0.3574066162109375
1681265157638099500,7.010099365234375,-0.10919189453125,0.19793701171875,0.450469970703125
1681265157648033300,7.020033203125,-0.644989013671875,0.582061767578125,0.5962677001953125
1681265157657966300,7.02996630859375,-1.2540740966796875,1.1737518310546875,0.8839569091796875
1681265157667899400,7.0398994140625,-1.558563232421875,1.977996826171875,1.299896240234375
1681265157677833200,7.049833251953125,-1.551788330078125,2.8144989013671875,1.7432403564453125
1681265157687766300,7.059766357421875,-1.3953094482421875,3.608245849609375,2.1893157958984375
1681265157697699300,7.06969921875,-1.001251220703125,4.5019989013671875,2.722900390625
1681265157707632400,7.07963232421875,-0.293670654296875,5.276763916015625,3.1219635009765625
1681265157717566200,7.089566162109375,1.016387939453125,5.90576171875,3.3790740966796875
1681265157727499300,7.099499267578125,4.2440948486328125,5.4767608642578125,1.8728790283203125
1681265157737432300,7.109432373046875,3.7295074462890625,2.8512725830078125,0.5732879638671875
1681265157747366400,7.119366455078125,1.875030517578125,1.6235809326171875,0.601837158203125
1681265157757299500,7.129299560546875,0.7982635498046875,1.237274169921875,0.5179290771484375
1681265157767232500,7.139232421875,-0.0591278076171875,0.990966796875,0.391845703125
1681265157777166300,7.149166259765625,-0.8444366455078125,0.813018798828125,0.28497314453125
1681265157787099400,7.159099365234375,-1.1575927734375,0.644866943359375,0.1717681884765625
1681265157797032400,7.169032470703125,-1.1776123046875,0.4970245361328125,0.060546875
1681265157806965200,7.17896533203125,-1.2668914794921875,0.3803253173828125,-0.0291595458984375
1681265157816899300,7.1888994140625,-1.51629638671875,0.279388427734375,-0.09332275390625
1681265157826832400,7.198832275390625,-1.81976318359375,0.208526611328125,-0.1599884033203125
1681265157836765200,7.20876513671875,-1.4579925537109375,-0.0421295166015625,-0.3553619384765625
1681265157846699300,7.21869921875,-0.5850372314453125,-0.222564697265625,-0.5237274169921875
1681265157856632300,7.22863232421875,0.8217926025390625,-0.53802490234375,-0.7312164306640625
1681265157866565000,7.238565185546875,3.2007904052734375,-1.483428955078125,-1.1556549072265625
1681265157876499500,7.24849951171875,1.1378021240234375,-1.19622802734375,-0.6337890625
1681265157886432500,7.2584326171875,0.7647552490234375,-1.003631591796875,-0.38641357421875
1681265157896365300,7.268365234375,0.565582275390625,-0.8724212646484375,-0.1645355224609375
1681265157906298400,7.27829833984375,0.1070098876953125,-0.652313232421875,0.077545166015625
1681265157916232400,7.288232421875,0.3590545654296875,-0.4951629638671875,0.3564300537109375
1681265157926165200,7.298165283203125,-0.6493682861328125,-0.175323486328125,0.572296142578125
1681265157936098300,7.308098388671875,-1.6193389892578125,-0.1608428955078125,0.490325927734375
1681265157946032400,7.318032470703125,-1.30706787109375,-0.1621551513671875,0.3565673828125
1681265157955965200,7.327965087890625,-0.710784912109375,-0.0384063720703125,0.254119873046875
1681265157965898200,7.337898193359375,-0.081085205078125,0.1650390625,0.08441162109375
1681265157975831300,7.347831298828125,0.85626220703125,0.4561004638671875,-0.0943603515625
1681265157985765400,7.357765380859375,1.4092864990234375,0.7532501220703125,-0.2764434814453125
1681265157995698400,7.367698486328125,0.6656646728515625,0.614105224609375,-0.3145599365234375
1681265158005631500,7.377631591796875,-0.29638671875,0.38946533203125,-0.246673583984375
1681265158015565300,7.3875654296875,-0.63690185546875,0.5349578857421875,-0.296722412109375
1681265158025498400,7.397498291015625,-0.8143310546875,0.771087646484375,-0.3653411865234375
1681265158035431400,7.407431396484375,-0.9702301025390625,1.09295654296875,-0.39013671875
1681265158045365200,7.417365234375,-1.018218994140625,1.70831298828125,-0.3787689208984375
1681265158055298300,7.42729833984375,-1.098388671875,2.640472412109375,-0.3251190185546875
1681265158065231400,7.4372314453125,-1.2219696044921875,3.7463836669921875,-0.1704254150390625
1681265158075164400,7.447164306640625,-1.464691162109375,4.902618408203125,0.09222412109375
1681265158085098200,7.45709814453125,-1.5157318115234375,5.52166748046875,0.369842529296875
1681265158095031300,7.46703125,-1.0599822998046875,5.2540435791015625,0.6241455078125
1681265158104964400,7.47696435546875,0.3416595458984375,4.5553436279296875,0.8395233154296875
1681265158114898400,7.4868984375,4.608245849609375,3.2117462158203125,0.92376708984375
1681265158124831500,7.49683154296875,3.0255126953125,2.1217193603515625,1.009735107421875
1681265158134764500,7.5067646484375,-0.2491302490234375,1.8740997314453125,0.9930419921875
1681265158144698400,7.516698486328125,-0.87652587890625,1.5896453857421875,0.7313385009765625
1681265158154631400,7.52663134765625,-0.568634033203125,1.3220367431640625,0.645721435546875
1681265158164564500,7.536564453125,-0.0032958984375,1.1077423095703125,0.644012451171875
1681265158174497300,7.546497314453125,0.376434326171875,0.9153594970703125,0.62823486328125
1681265158184431400,7.556431396484375,0.41973876953125,0.883148193359375,0.620361328125
1681265158194364400,7.566364501953125,0.318695068359375,0.860107421875,0.600067138671875
1681265158204297200,7.576297119140625,0.08392333984375,0.686737060546875,0.6586761474609375
1681265158214231300,7.586231201171875,-0.13653564453125,0.4906768798828125,0.7837677001953125
1681265158224164400,7.596164306640625,0.0594635009765625,0.369781494140625,0.7415618896484375
1681265158234097200,7.60609716796875,0.2740936279296875,0.2386016845703125,0.6441497802734375
1681265158244031500,7.616031494140625,0.458740234375,0.070159912109375,0.583984375
1681265158253964500,7.625964599609375,0.610687255859375,-0.0751190185546875,0.5253753662109375
1681265158263897300,7.6358974609375,0.5670318603515625,-0.12847900390625,0.492767333984375
1681265158273830400,7.645830322265625,0.3935089111328125,-0.2475128173828125,0.505218505859375
1681265158283764500,7.655764404296875,0.17266845703125,-0.397705078125,0.5673065185546875
1681265158293697300,7.665697265625,0.0383148193359375,-0.415863037109375,0.5320281982421875
1681265158303630300,7.67563037109375,-0.016510009765625,-0.341156005859375,0.40826416015625
1681265158313564400,7.685564453125,0.005645751953125,-0.27801513671875,0.325836181640625
1681265158323497200,7.695497314453125,0.064849853515625,-0.2352447509765625,0.2570037841796875
1681265158333430300,7.70543017578125,0.0802764892578125,-0.267120361328125,0.2574462890625
1681265158343363300,7.71536328125,0.0534210205078125,-0.2913818359375,0.29949951171875
1681265158353297200,7.725297119140625,0.01422119140625,-0.283966064453125,0.397705078125
1681265158363230200,7.735230224609375,-0.030426025390625,-0.180145263671875,0.4643096923828125
1681265158373163300,7.745163330078125,-0.123321533203125,-0.0663909912109375,0.5760040283203125
1681265158383097300,7.755097412109375,-0.3378753662109375,0.1421051025390625,0.711944580078125
1681265158393030400,7.765030517578125,-0.7691497802734375,0.51519775390625,0.850677490234375
1681265158402963500,7.77496337890625,-1.269866943359375,1.106964111328125,1.1170806884765625
1681265158412897300,7.784897216796875,-1.5470428466796875,1.939910888671875,1.5256195068359375
1681265158422830300,7.794830322265625,-1.4605712890625,2.8597564697265625,2.0616455078125
1681265158432763400,7.804763427734375,-1.1794281005859375,3.5904998779296875,2.478546142578125
1681265158442696400,7.814696533203125,-0.9154815673828125,4.413299560546875,2.7156219482421875
1681265158452630300,7.82463037109375,-0.640411376953125,5.160308837890625,2.9281005859375
1681265158462563300,7.834563232421875,-0.2047882080078125,5.1614532470703125,2.8477325439453125
1681265158472496400,7.844496337890625,2.4590911865234375,5.086639404296875,1.9912567138671875
1681265158482430500,7.854430419921875,4.22381591796875,3.872467041015625,0.3234405517578125
1681265158492363500,7.864363525390625,2.4144744873046875,2.1851806640625,0.079345703125
1681265158502296300,7.87429638671875,1.068603515625,1.4403076171875,0.239471435546875
1681265158512230400,7.88423046875,0.136688232421875,1.0813140869140625,0.27490234375
1681265158522163500,7.89416357421875,-0.5790557861328125,0.8280792236328125,0.2234344482421875
1681265158532096500,7.904096435546875,-0.9126739501953125,0.6349945068359375,0.145721435546875
1681265158542029300,7.914029296875,-0.9275970458984375,0.456298828125,0.06414794921875
1681265158551963400,7.92396337890625,-1.0261383056640625,0.318023681640625,-0.0067138671875
1681265158561896400,7.933896484375,-1.314300537109375,0.2201995849609375,-0.0777435302734375
1681265158571829200,7.943829345703125,-1.6319580078125,0.111785888671875,-0.161346435546875
1681265158581763300,7.953763427734375,-1.3231353759765625,-0.2225799560546875,-0.3709869384765625
1681265158591696400,7.9636962890625,-0.78973388671875,-0.289031982421875,-0.4647216796875
1681265158601629200,7.973629150390625,0.26470947265625,-0.5018310546875,-0.64825439453125
1681265158611562200,7.983562255859375,3.048126220703125,-1.3105621337890625,-1.17987060546875
1681265158621496300,7.993496337890625,1.763397216796875,-1.34417724609375,-0.780120849609375
1681265158631430000,8.003429931640625,0.68341064453125,-1.0208740234375,-0.3177032470703125
1681265158641363000,8.013363037109375,-0.108642578125,-0.7495269775390625,-0.06231689453125
1681265158651296800,8.023296875,-0.525177001953125,-0.6522674560546875,0.1150360107421875
1681265158661229800,8.033229736328124,0.0321807861328125,-0.7870941162109375,0.42108154296875
1681265158671163000,8.043162841796875,-1.068145751953125,-0.643463134765625,0.6645965576171875
1681265158681097000,8.053096923828125,-1.4419403076171875,-0.3517303466796875,0.4629364013671875
1681265158691030000,8.063030029296876,-0.781463623046875,-0.1992340087890625,0.3422088623046875
1681265158700963000,8.072963134765626,-0.0721588134765625,-0.0424652099609375,0.150604248046875
1681265158710896000,8.082896240234374,2.100555419921875,0.4278717041015625,-0.461883544921875
1681265158720830000,8.092829833984375,1.9554290771484375,0.566558837890625,-0.6512908935546875
1681265158730763000,8.102762939453125,-0.4210052490234375,0.288787841796875,-0.2423858642578125
1681265158740696000,8.112696044921876,-0.52569580078125,0.234893798828125,-0.173309326171875
1681265158750630000,8.1226298828125,-0.5912017822265625,0.2810821533203125,-0.170867919921875
1681265158760563000,8.13256298828125,-0.8310546875,0.4567108154296875,-0.226104736328125
1681265158770496000,8.14249609375,-1.0914459228515625,0.7958526611328125,-0.29315185546875
1681265158780428800,8.1524287109375,-1.2012176513671875,1.206695556640625,-0.28533935546875
1681265158790363000,8.16236279296875,-1.0382232666015625,1.6601715087890625,-0.2488250732421875
1681265158800296000,8.1722958984375,-0.899749755859375,2.3917236328125,-0.2165374755859375
1681265158810228700,8.182228759765625,-0.8814239501953125,3.6572418212890625,-0.1698455810546875
1681265158820163000,8.1921630859375,-0.908050537109375,5.0391693115234375,-0.0362091064453125
1681265158830096100,8.20209619140625,-0.4021148681640625,6.0538482666015625,0.1661376953125
1681265158840029000,8.21202880859375,-0.387481689453125,5.9515380859375,0.5080413818359375
1681265158849963000,8.221962890625,0.841644287109375,4.7944488525390625,0.7019195556640625
1681265158859896000,8.23189599609375,4.1485748291015625,3.2648773193359375,0.77093505859375
1681265158869828900,8.241828857421876,1.20721435546875,2.46246337890625,1.1387176513671875
1681265158879763000,8.251762939453124,-0.66729736328125,1.9451751708984375,0.9560394287109375
1681265158889696000,8.261696044921875,-0.706268310546875,1.483856201171875,0.667633056640625
1681265158899628800,8.27162890625,-0.3327484130859375,1.20654296875,0.6055450439453125
1681265158909561900,8.281561767578125,0.16455078125,0.9172821044921875,0.5853118896484375
1681265158919496000,8.291495849609374,0.4472198486328125,0.709228515625,0.5799560546875
1681265158929428700,8.3014287109375,0.4093017578125,0.73114013671875,0.5884246826171875
1681265158939361800,8.31136181640625,0.2947540283203125,0.7534637451171875,0.583343505859375
1681265158949295900,8.3212958984375,0.013458251953125,0.656951904296875,0.6876678466796875
1681265158959229000,8.33122900390625,-0.09954833984375,0.52734375,0.816162109375
1681265158969162000,8.341161865234374,0.2325439453125,0.4249725341796875,0.76776123046875
1681265158979095800,8.351095703125,0.51531982421875,0.2181549072265625,0.7427520751953125
1681265158989028900,8.36102880859375,1.19915771484375,-0.4588775634765625,0.9788360595703125
1681265158998962000,8.3709619140625,1.5788421630859375,-0.643768310546875,0.8524169921875
1681265159008895000,8.38089501953125,0.8852691650390625,-0.2177581787109375,0.5557861328125
1681265159018828800,8.390828857421875,0.4385986328125,-0.0912322998046875,0.5336761474609375
1681265159028761900,8.400761962890625,0.076751708984375,-0.2322998046875,0.70941162109375
1681265159038695000,8.41069482421875,-0.209869384765625,-0.4137420654296875,0.8120880126953125
1681265159048628700,8.420628662109374,-0.177032470703125,-0.2793731689453125,0.5201873779296875
1681265159058562000,8.43056201171875,-0.1062164306640625,-0.209564208984375,0.2790679931640625
1681265159068495000,8.4404951171875,-0.034088134765625,-0.2056884765625,0.19134521484375
1681265159078429000,8.450428955078126,-0.094940185546875,-0.190826416015625,0.1746368408203125
1681265159088362000,8.460362060546874,-0.1079559326171875,-0.167327880859375,0.202850341796875
1681265159098295000,8.470294921875,-0.0289764404296875,-0.0879669189453125,0.2798309326171875
1681265159108228000,8.48022802734375,-0.025115966796875,0.0380859375,0.3422088623046875
1681265159118162000,8.490161865234375,-0.055328369140625,0.22589111328125,0.44549560546875
1681265159128095000,8.500094970703126,-0.360260009765625,0.63232421875,0.5695953369140625
1681265159138028000,8.510028076171874,-0.7041778564453125,1.027496337890625,0.835723876953125
1681265159147961900,8.5199619140625,-1.061737060546875,1.63604736328125,1.31475830078125
1681265159157895000,8.52989501953125,-1.23297119140625,2.4564361572265625,1.841461181640625
1681265159167828000,8.539827880859375,-1.3054656982421875,3.433563232421875,2.485626220703125
1681265159177762000,8.549761962890624,-0.9462127685546875,4.7391204833984375,3.23046875
1681265159187695000,8.559695068359375,-0.16644287109375,6.376953125,3.730133056640625
1681265159197628000,8.5696279296875,1.5897064208984375,7.3711090087890625,3.439849853515625
1681265159207562000,8.57956201171875,3.8563079833984375,5.1135406494140625,1.567352294921875
1681265159217495000,8.5894951171875,3.0584869384765625,2.3583831787109375,0.7872314453125
1681265159227427800,8.599427734375,1.614044189453125,1.5239105224609375,0.689422607421875
1681265159237361000,8.60936083984375,0.58648681640625,1.16815185546875,0.5611572265625
1681265159247295000,8.619294921875,-0.236175537109375,0.99951171875,0.423583984375
1681265159257227800,8.629227783203126,-0.8568572998046875,0.878326416015625,0.308837890625
1681265159267160800,8.639160888671874,-1.154327392578125,0.731719970703125,0.1795654296875
1681265159277095000,8.649094970703125,-1.2343292236328125,0.5644989013671875,0.045501708984375
1681265159287027700,8.65902783203125,-1.3639068603515625,0.4415283203125,-0.0603790283203125
1681265159296960800,8.668960693359375,-1.6371612548828125,0.3514404296875,-0.1394805908203125
1681265159306895000,8.67889501953125,-2.02947998046875,0.310302734375,-0.2426910400390625
1681265159316828000,8.688827880859375,-1.8842315673828125,0.239532470703125,-0.4070281982421875
1681265159326761000,8.698760986328125,-0.52825927734375,-0.26934814453125,-0.7759552001953125
1681265159336694000,8.708694091796875,1.655426025390625,-0.9322509765625,-1.2105865478515625
1681265159346627800,8.7186279296875,3.1584625244140625,-1.7587127685546875,-1.4114532470703125
1681265159356561000,8.728560791015624,0.71832275390625,-1.3316497802734375,-0.7224273681640625
1681265159366494000,8.738493896484375,0.6241455078125,-1.1251068115234375,-0.432159423828125
1681265159376427800,8.748427734375,0.8011627197265625,-1.002166748046875,-0.16162109375
1681265159386360800,8.75836083984375,0.5728912353515625,-0.682220458984375,0.1284942626953125
1681265159396294000,8.7682939453125,1.409393310546875,-0.3449859619140625,0.4556884765625
1681265159406227700,8.778227783203125,-0.0644073486328125,0.043304443359375,0.818878173828125
1681265159416160800,8.788160888671875,-1.89947509765625,-0.000579833984375,0.6367950439453125
1681265159426093800,8.79809375,-1.751312255859375,-0.040313720703125,0.467132568359375
1681265159436027000,8.80802685546875,-1.040313720703125,0.0127105712890625,0.398712158203125
1681265159445961000,8.8179609375,-0.345062255859375,0.15374755859375,0.224212646484375
1681265159455894000,8.82789404296875,0.494903564453125,0.295135498046875,-0.056243896484375
1681265159465827000,8.8378271484375,1.2858428955078125,0.5083160400390625,-0.342254638671875
1681265159475761000,8.847760986328124,1.144805908203125,0.7328643798828125,-0.4990386962890625
1681265159485694000,8.85769384765625,0.04296875,0.5611572265625,-0.4490203857421875
1681265159495627000,8.867626953125,-0.589324951171875,0.570953369140625,-0.441253662109375
1681265159505560800,8.877560791015625,-0.7462921142578125,0.832733154296875,-0.5087127685546875
1681265159515494000,8.887493896484376,-0.8035736083984375,1.1178436279296875,-0.5318603515625
1681265159525427000,8.897427001953124,-0.7725982666015625,1.623931884765625,-0.5269317626953125
1681265159535360800,8.90736083984375,-0.8741607666015625,2.4602508544921875,-0.4665069580078125
1681265159545293800,8.9172939453125,-0.91900634765625,3.5707855224609375,-0.361083984375
1681265159555227100,8.92722705078125,-1.136962890625,4.718963623046875,-0.104644775390625
1681265159565161000,8.937160888671874,-1.19927978515625,5.394744873046875,0.23175048828125
1681265159575094000,8.947093994140625,-0.942779541015625,5.4215240478515625,0.5497283935546875
1681265159585027000,8.957027099609375,-0.230010986328125,5.1442108154296875,1.23663330078125
1681265159594960000,8.9669599609375,2.22662353515625,3.5134429931640625,1.5805511474609375
1681265159604894000,8.97689404296875,3.1361083984375,2.067169189453125,1.1820526123046875
1681265159614827000,8.986826904296874,0.842681884765625,1.885589599609375,0.8582305908203125
1681265159624759800,8.996759765625,0.271392822265625,1.6244659423828125,0.801025390625
1681265159634693000,9.006693115234375,-0.0045166015625,1.289337158203125,0.7720184326171875
1681265159644626200,9.016626220703126,0.015625,1.0295257568359375,0.7537994384765625
1681265159654559200,9.026559326171874,0.1386871337890625,0.863037109375,0.7310943603515625
1681265159664493300,9.036493408203125,0.1703033447265625,0.89141845703125,0.724151611328125
1681265159674426400,9.04642626953125,0.1008148193359375,0.8779296875,0.728240966796875
1681265159684359400,9.056359375,-0.089691162109375,0.71258544921875,0.752105712890625
1681265159694293200,9.066293212890624,-0.2118682861328125,0.491485595703125,0.78448486328125
1681265159704226300,9.076226318359375,-0.0469512939453125,0.3418121337890625,0.771392822265625
1681265159714159400,9.086159423828125,0.1889801025390625,0.1277923583984375,0.7711639404296875
1681265159724093200,9.09609326171875,0.8934783935546875,-0.335540771484375,0.8619232177734375
1681265159734026200,9.106026123046876,1.551605224609375,-0.5929718017578125,0.728668212890625
1681265159743959300,9.115959228515624,1.0436553955078125,-0.3056640625,0.483306884765625
1681265159753892000,9.12589208984375,0.5866851806640625,-0.1799468994140625,0.46173095703125
1681265159763826200,9.135826171875,0.172882080078125,-0.2433929443359375,0.5631256103515625
1681265159773759200,9.14575927734375,-0.1917724609375,-0.4136505126953125,0.6027984619140625
1681265159783692000,9.155692138671874,-0.0527191162109375,-0.2951507568359375,0.3265533447265625
1681265159793626400,9.16562646484375,0.01104736328125,-0.19891357421875,0.159088134765625
1681265159803559400,9.175559326171875,-0.01971435546875,-0.166748046875,0.1247406005859375
1681265159813492200,9.1854921875,-0.0219573974609375,-0.1524810791015625,0.11883544921875
1681265159823426300,9.19542626953125,-0.0398712158203125,-0.1697540283203125,0.1459808349609375
1681265159833359400,9.205359375,-0.048736572265625,-0.1612548828125,0.208099365234375
1681265159843292200,9.215292236328125,0.01007080078125,-0.0580596923828125,0.2865447998046875
1681265159853226200,9.225226318359375,0.072296142578125,0.050140380859375,0.3931121826171875
1681265159863159300,9.2351591796875,-0.2432708740234375,0.2627410888671875,0.62481689453125
1681265159873092000,9.245092041015624,-1.0966949462890625,0.8642730712890625,0.8715057373046875
1681265159883026200,9.255026123046875,-1.621124267578125,1.6809844970703125,1.2081298828125
1681265159892959200,9.264959228515625,-1.5501861572265625,2.4524688720703125,1.6841278076171875
1681265159902892000,9.27489208984375,-1.37799072265625,3.2538299560546875,2.1846160888671875
1681265159912825000,9.2848251953125,-1.0643463134765625,4.2201690673828125,2.6754150390625
1681265159922759200,9.29475927734375,-0.5001373291015625,5.182464599609375,3.0763397216796875
1681265159932692200,9.304692138671875,0.382568359375,5.8943634033203125,3.310333251953125
1681265159942625300,9.314625244140625,2.843414306640625,5.830841064453125,2.5342559814453125
1681265159952559400,9.324559326171874,4.14874267578125,3.3974456787109375,0.8585052490234375
1681265159962492200,9.3344921875,2.489349365234375,1.82708740234375,0.5994873046875
1681265159972425200,9.34442529296875,1.162506103515625,1.327667236328125,0.5791015625
1681265159982359300,9.354359375,0.2339935302734375,1.0567169189453125,0.4523773193359375
1681265159992292000,9.3642919921875,-0.5807342529296875,0.8809661865234375,0.325714111328125
1681265160002225200,9.37422509765625,-1.1374969482421875,0.7340850830078125,0.2027435302734375
1681265160012159200,9.3841591796875,-1.261688232421875,0.5958251953125,0.0775604248046875
1681265160022092000,9.394092041015625,-1.1945953369140625,0.450347900390625,-0.0027618408203125
1681265160032025000,9.404025146484376,-1.2396392822265625,0.3426971435546875,-0.0663909912109375
1681265160041959200,9.413959228515624,-1.4069366455078125,0.222869873046875,-0.1474456787109375
1681265160051892200,9.423892333984375,-1.289215087890625,-0.026214599609375,-0.3050689697265625
1681265160061825300,9.4338251953125,-0.700042724609375,-0.2564544677734375,-0.4727630615234375
1681265160071759000,9.443759033203126,-0.1955108642578125,-0.24456787109375,-0.5083160400390625
1681265160081692200,9.453692138671874,2.106719970703125,-0.9886016845703125,-0.87322998046875
1681265160091625200,9.463625244140625,2.0015106201171875,-1.3948974609375,-0.7791900634765625
1681265160101558300,9.473558349609375,0.8192901611328125,-1.1242828369140625,-0.426513671875
1681265160111492000,9.4834921875,0.533721923828125,-1.0148773193359375,-0.2729644775390625
1681265160121425200,9.493425048828126,-0.2562713623046875,-0.7236480712890625,-0.078033447265625
1681265160131358200,9.503358154296874,0.04095458984375,-0.6267547607421875,0.0675811767578125
1681265160141292000,9.5132919921875,0.025482177734375,-0.293060302734375,0.2081451416015625
1681265160151225300,9.523225341796875,-0.882659912109375,-0.0991363525390625,0.2520751953125
1681265160161158400,9.533158447265626,-0.974029541015625,0.01031494140625,0.18414306640625
1681265160171092200,9.54309228515625,-0.75299072265625,0.1618804931640625,0.1058197021484375
1681265160181025300,9.553025390625,-0.0783538818359375,0.325653076171875,0.0644073486328125
1681265160190958300,9.562958251953125,0.8367767333984375,0.4945831298828125,-0.045440673828125
1681265160200892200,9.57289208984375,1.0681915283203125,0.5399932861328125,-0.2275543212890625
1681265160210825200,9.5828251953125,0.3899383544921875,0.4322509765625,-0.272979736328125
1681265160220758300,9.59275830078125,-0.2499237060546875,0.3189697265625,-0.2694549560546875
1681265160230692000,9.602692138671875,-0.4732818603515625,0.394287109375,-0.3311309814453125
1681265160240625200,9.612625244140625,-0.5328521728515625,0.499298095703125,-0.416412353515625
1681265160250558200,9.62255810546875,-0.62554931640625,0.676605224609375,-0.496002197265625
1681265160260492300,9.6324921875,-0.64874267578125,1.0259552001953125,-0.5785980224609375
1681265160270425300,9.64242529296875,-0.7528228759765625,1.7259521484375,-0.5847320556640625
1681265160280358400,9.6523583984375,-1.029876708984375,2.6972198486328125,-0.45245361328125
1681265160290292200,9.662292236328126,-1.34423828125,3.8958282470703125,-0.1894683837890625
1681265160300225300,9.672225341796874,-1.6419677734375,5.0730133056640625,0.1399688720703125
1681265160310158300,9.682158447265625,-1.641082763671875,5.695770263671875,0.45751953125
1681265160320092200,9.692092041015625,-1.179901123046875,5.5977935791015625,0.730499267578125
1681265160330025200,9.702025146484376,0.120819091796875,5.03924560546875,0.917236328125
1681265160339958300,9.711958251953124,5.14398193359375,3.4058380126953125,0.8871002197265625
1681265160349892000,9.72189208984375,4.407501220703125,2.0438232421875,0.8312225341796875
1681265160359825200,9.7318251953125,-0.1260986328125,1.9799957275390625,0.8782501220703125
1681265160369758200,9.74175830078125,-0.883636474609375,1.7057342529296875,0.781707763671875
1681265160379691000,9.75169091796875,-0.4485931396484375,1.5881195068359375,0.7798309326171875
1681265160389625300,9.761625244140625,-0.137908935546875,1.4199981689453125,0.771728515625
1681265160399558400,9.771558349609375,-0.0211944580078125,1.1299591064453125,0.7876129150390625
1681265160409492200,9.7814921875,-0.0765533447265625,0.84625244140625,0.8144683837890625
1681265160419425300,9.79142529296875,-0.1950531005859375,0.5657196044921875,0.8474273681640625
1681265160429358300,9.8013583984375,-0.1278839111328125,0.3170166015625,0.8860931396484375
1681265160439291100,9.811291015625,0.223052978515625,0.097320556640625,0.8879852294921875
1681265160449225200,9.82122509765625,0.8765869140625,-0.0485992431640625,0.7252349853515625
1681265160459158300,9.831158203125,1.4969482421875,-0.3260345458984375,0.6951751708984375
1681265160469091000,9.841091064453124,1.36407470703125,-0.51947021484375,0.68414306640625
1681265160479025200,9.851025146484375,0.7595977783203125,-0.344696044921875,0.56591796875
1681265160488958200,9.860958251953125,0.278961181640625,-0.2123260498046875,0.5302734375
1681265160498891000,9.87089111328125,-0.0531158447265625,-0.36138916015625,0.5717010498046875
1681265160508825300,9.880825439453124,-0.180755615234375,-0.3645172119140625,0.4937896728515625
1681265160518758400,9.89075830078125,-0.11822509765625,-0.298980712890625,0.32763671875
1681265160528691200,9.900691162109375,-0.0299530029296875,-0.2605743408203125,0.2315216064453125
1681265160538625300,9.910625244140626,-0.0413970947265625,-0.2770233154296875,0.2317657470703125
1681265160548558300,9.920558349609376,-0.137786865234375,-0.3333282470703125,0.28509521484375
1681265160558491100,9.9304912109375,-0.1850128173828125,-0.344696044921875,0.341827392578125
1681265160568425200,9.94042529296875,-0.2540130615234375,-0.2032470703125,0.3819580078125
1681265160578358300,9.950358154296875,-0.2612457275390625,-0.0675048828125,0.4040069580078125
1681265160588291000,9.960291015625,-0.522735595703125,0.1158905029296875,0.519073486328125
1681265160598225200,9.97022509765625,-1.122711181640625,0.5452423095703125,0.67132568359375
1681265160608158200,9.980158203125,-1.7259521484375,1.3131256103515625,0.8823394775390625
1681265160618091000,9.990091064453125,-1.837860107421875,2.24517822265625,1.281524658203125
1681265160628025300,10.000025390625,-1.7074127197265625,3.358673095703125,1.843505859375
1681265160637962000,10.0099619140625,-1.4610443115234375,4.4656219482421875,2.2162017822265625
1681265160647894800,10.019894775390625,-0.9520721435546875,5.0838775634765625,2.2774505615234375
1681265160657828900,10.029828857421874,-0.147369384765625,5.5037384033203125,2.32568359375
1681265160667762000,10.039761962890625,1.3343505859375,5.4223785400390625,2.518463134765625
1681265160677695000,10.049695068359375,4.1290130615234375,4.6866607666015625,1.7887420654296875
1681265160687629000,10.059629150390625,3.322998046875,2.631134033203125,0.67071533203125
1681265160697561900,10.069561767578126,1.7676239013671875,1.535430908203125,0.488555908203125
1681265160707495000,10.079494873046874,0.6823883056640625,1.2503662109375,0.4806976318359375
1681265160717429000,10.089428955078125,-0.175201416015625,1.04547119140625,0.3944854736328125
1681265160727361800,10.09936181640625,-0.759613037109375,0.871917724609375,0.2799835205078125
1681265160737294800,10.109294921875,-1.1661376953125,0.6912689208984375,0.1654052734375
1681265160747229000,10.11922900390625,-1.409820556640625,0.502593994140625,0.0564422607421875
1681265160757161700,10.12916162109375,-1.454010009765625,0.3070068359375,-0.0244903564453125
1681265160767094800,10.1390947265625,-1.5521392822265625,0.14105224609375,-0.0785980224609375
1681265160777029000,10.149029052734376,-1.6433258056640625,0.025390625,-0.1422576904296875
1681265160786962000,10.1589619140625,-1.485626220703125,-0.1058807373046875,-0.220611572265625
1681265160796895000,10.16889501953125,-0.9068145751953125,-0.3165740966796875,-0.369384765625
1681265160806829000,10.1788291015625,0.783203125,-0.854522705078125,-0.7553253173828125
1681265160816761900,10.188761962890625,2.4646453857421875,-1.5861358642578125,-1.020660400390625
1681265160826695000,10.19869482421875,1.27099609375,-1.3261260986328125,-0.6389617919921875
1681265160836629000,10.20862890625,1.059722900390625,-1.1115570068359375,-0.3261260986328125
1681265160846561800,10.218561767578125,0.433349609375,-0.820037841796875,-0.021514892578125
1681265160856494800,10.228494873046875,0.0442657470703125,-0.6233367919921875,0.1668548583984375
1681265160866429000,10.238428955078126,0.360015869140625,-0.61639404296875,0.31781005859375
1681265160876361700,10.24836181640625,-0.0171661376953125,-0.3908538818359375,0.3748321533203125
1681265160886294800,10.258294677734375,-0.80792236328125,-0.1986236572265625,0.3773193359375
1681265160896229000,10.26822900390625,-1.33428955078125,-0.1617584228515625,0.26318359375
1681265160906162000,10.278161865234376,-0.9293670654296875,-0.0165863037109375,0.09814453125
1681265160916095000,10.288094970703124,0.1894378662109375,0.3106689453125,-0.13848876953125
1681265160926028000,10.298028076171875,1.177947998046875,0.5285491943359375,-0.3433380126953125
1681265160935961900,10.3079619140625,0.9531402587890625,0.4880828857421875,-0.3678436279296875
1681265160945895000,10.31789501953125,0.277496337890625,0.4179229736328125,-0.306182861328125
1681265160955828000,10.327827880859376,-0.3061370849609375,0.2857666015625,-0.2148590087890625
1681265160965761800,10.33776171875,-0.5265655517578125,0.274658203125,-0.2574615478515625
1681265160975694800,10.34769482421875,-0.5453033447265625,0.3573150634765625,-0.34979248046875
1681265160985628000,10.3576279296875,-0.6181488037109375,0.4955596923828125,-0.5009002685546875
1681265160995561700,10.367561767578126,-0.6482696533203125,0.6664581298828125,-0.7273712158203125
1681265161005494800,10.377494873046874,-0.661865234375,1.006011962890625,-0.9468231201171875
1681265161015429000,10.38742919921875,-0.886810302734375,1.66290283203125,-1.022186279296875
1681265161025362000,10.39736181640625,-1.3466339111328125,2.697723388671875,-0.7559051513671875
1681265161035295000,10.407294921875,-1.83184814453125,3.918060302734375,-0.25201416015625
1681265161045229000,10.41722900390625,-2.1591949462890625,5.037261962890625,0.28875732421875
1681265161055161900,10.427161865234375,-2.0102081298828125,5.4511260986328125,0.85052490234375
1681265161065095000,10.437094970703125,-1.5199432373046875,5.618560791015625,1.448638916015625
1681265161075029000,10.447029052734376,2.35650634765625,6.32720947265625,2.2207183837890625
1681265161084961800,10.4569619140625,7.1303558349609375,4.01373291015625,1.02587890625
1681265161094894800,10.466894775390625,1.4039459228515625,2.696807861328125,1.063446044921875
1681265161104829000,10.476828857421875,-0.782806396484375,1.99053955078125,1.01824951171875
1681265161114761700,10.48676171875,-0.548248291015625,1.530303955078125,0.9502716064453125
1681265161124694800,10.49669482421875,-0.2621002197265625,1.292022705078125,0.912628173828125
1681265161134629000,10.506629150390625,-0.1418914794921875,0.91033935546875,0.820526123046875
1681265161144562000,10.51656201171875,-0.1702728271484375,0.5703887939453125,0.7751922607421875
1681265161154495000,10.526494873046875,-0.20928955078125,0.3111572265625,0.7649993896484375
1681265161164429000,10.536428955078126,-0.1092987060546875,0.140899658203125,0.7930145263671875
1681265161174361900,10.54636181640625,0.2016754150390625,-0.0480804443359375,0.7703857421875
1681265161184295000,10.556294921875,0.887725830078125,-0.25823974609375,0.6064910888671875
1681265161194229000,10.56622900390625,1.7308349609375,-0.694732666015625,0.6268157958984375
1681265161204161800,10.576161865234376,1.36187744140625,-0.6804046630859375,0.554962158203125
1681265161214094800,10.5860947265625,0.7807464599609375,-0.52740478515625,0.5574951171875
1681265161224029000,10.59602880859375,0.4743194580078125,-0.6765289306640625,0.7504730224609375
1681265161233961700,10.605961669921875,0.035614013671875,-0.8787689208984375,0.908660888671875
1681265161243894800,10.615894775390625,-0.0795745849609375,-0.737396240234375,0.7006683349609375
1681265161253829000,10.6258291015625,-0.223052978515625,-0.40576171875,0.415069580078125
1681265161263762000,10.635761962890625,-0.1676788330078125,-0.3146209716796875,0.2032470703125
1681265161273695000,10.645695068359375,-0.1296234130859375,-0.298492431640625,0.1556854248046875
1681265161283629000,10.655629150390626,-0.304718017578125,-0.3485107421875,0.21240234375
1681265161293561900,10.665561767578126,-0.341156005859375,-0.3551788330078125,0.275054931640625
1681265161303495000,10.675494873046874,-0.3087615966796875,-0.2090606689453125,0.3178558349609375
1681265161313429000,10.685428955078125,-0.10748291015625,-0.0398712158203125,0.3470306396484375
1681265161323361800,10.69536181640625,-0.088043212890625,0.178497314453125,0.4022369384765625
1681265161333294800,10.705294921875,-0.6526641845703125,0.7076873779296875,0.499053955078125
1681265161343229000,10.71522900390625,-1.280975341796875,1.4735260009765625,0.7807159423828125
1681265161353161700,10.72516162109375,-1.6270904541015625,2.430938720703125,1.310577392578125
1681265161363094800,10.7350947265625,-1.720794677734375,3.587921142578125,2.0005950927734375
1681265161373029000,10.745029052734376,-1.5187530517578125,4.7369384765625,2.612884521484375
1681265161382962000,10.7549619140625,-0.84906005859375,5.9627838134765625,3.032073974609375
1681265161392895000,10.76489501953125,0.205291748046875,6.7894134521484375,3.1720123291015625
1681265161402829000,10.7748291015625,2.21453857421875,6.3180389404296875,2.9845733642578125
1681265161412761900,10.784761962890625,4.440673828125,3.898468017578125,1.4338531494140625
1681265161422695000,10.79469482421875,3.004608154296875,1.8643951416015625,0.6044921875
1681265161432629000,10.80462890625,1.5302886962890625,1.2910308837890625,0.6153717041015625
1681265161442561800,10.814561767578125,0.59857177734375,1.0246429443359375,0.5424957275390625
1681265161452494800,10.824494873046875,-0.219818115234375,0.8798370361328125,0.4525146484375
1681265161462429000,10.834428955078126,-0.9493865966796875,0.7371063232421875,0.315032958984375
1681265161472362000,10.844362060546874,-1.348968505859375,0.60614013671875,0.200836181640625
1681265161482295000,10.854294921875,-1.4426422119140625,0.4387054443359375,0.0846710205078125
1681265161492228900,10.864228759765625,-1.6217193603515625,0.294281005859375,-0.0096588134765625
1681265161502162000,10.874161865234376,-1.9755096435546875,0.1839447021484375,-0.0843658447265625
1681265161512095000,10.884094970703124,-2.4127044677734375,0.097259521484375,-0.169281005859375
1681265161522028800,10.89402880859375,-2.0787353515625,-0.0908355712890625,-0.337371826171875
1681265161531961900,10.9039619140625,-0.0205841064453125,-0.61181640625,-0.802093505859375
1681265161541895000,10.91389501953125,2.19720458984375,-1.4447174072265625,-1.3483428955078125
1681265161551828700,10.923828857421874,2.2705230712890625,-1.9487152099609375,-1.1957244873046875
1681265161561761800,10.93376171875,1.1786651611328125,-1.6224212646484375,-0.66064453125
1681265161571694800,10.94369482421875,1.347625732421875,-1.3464813232421875,-0.21307373046875
1681265161581629000,10.95362890625,0.73663330078125,-0.7666473388671875,0.235809326171875
1681265161591562000,10.96356201171875,0.9969635009765625,-0.5190582275390625,0.6020660400390625
1681265161601495000,10.9734951171875,0.9851531982421875,-0.2113037109375,1.032379150390625
1681265161611428900,10.983428955078125,-1.4666900634765625,-0.12762451171875,0.807403564453125
1681265161621362000,10.99336181640625,-2.0330352783203125,-0.1727447509765625,0.4337158203125
1681265161631295000,11.003294921875,-1.425811767578125,-0.050567626953125,0.412322998046875
1681265161641225200,11.01322509765625,-0.53240966796875,0.1439971923828125,0.278961181640625
1681265161651158300,11.023158203125,1.747344970703125,0.5153656005859375,-0.3242034912109375
1681265161661091300,11.03309130859375,2.0584564208984375,0.7192840576171875,-0.7420501708984375
1681265161671025200,11.043025146484375,0.3994140625,0.46148681640625,-0.4716796875
1681265161680958200,11.052958251953125,-0.4987030029296875,0.304534912109375,-0.3420257568359375
1681265161690891300,11.062891357421876,-0.7963104248046875,0.33453369140625,-0.3822479248046875
1681265161700825000,11.0728251953125,-0.9083404541015625,0.502410888671875,-0.5127105712890625
1681265161710758100,11.082758056640625,-0.973052978515625,0.7184600830078125,-0.63836669921875
1681265161720691200,11.092691162109375,-1.019805908203125,1.0087738037109375,-0.758270263671875
1681265161730625300,11.102625244140626,-0.86285400390625,1.428680419921875,-0.878509521484375
1681265161740558300,11.112558349609374,-0.75811767578125,2.163116455078125,-0.9171905517578125
1681265161750492400,11.122492431640625,-1.06072998046875,3.232147216796875,-0.7684326171875
1681265161760425200,11.13242529296875,-1.5155792236328125,4.4839324951171875,-0.3750457763671875
1681265161770358300,11.142358154296875,-1.7910308837890625,5.4286041259765625,0.2038116455078125
1681265161780292400,11.152292236328124,-1.7362213134765625,5.73162841796875,0.831207275390625
1681265161790225200,11.16222509765625,-1.135772705078125,5.4674530029296875,1.4262847900390625
1681265161800158200,11.172158203125,3.3200225830078125,5.0897979736328125,2.68280029296875
1681265161810092300,11.18209228515625,4.9313201904296875,3.2422637939453125,1.745880126953125
1681265161820025000,11.192025146484376,1.1537322998046875,2.289947509765625,1.1432037353515625
1681265161829958100,11.201958251953124,-0.1782989501953125,1.8654937744140625,0.9000091552734375
1681265161839892500,11.211892578125,-0.3164215087890625,1.5457000732421875,0.88043212890625
1681265161849825300,11.2218251953125,-0.23455810546875,1.1901702880859375,0.8749847412109375
1681265161859758300,11.23175830078125,-0.1010284423828125,0.8169403076171875,0.8300018310546875
1681265161869692400,11.2416923828125,-0.0357208251953125,0.558349609375,0.7738800048828125
1681265161879625200,11.251625244140625,0.0066986083984375,0.3799285888671875,0.717010498046875
1681265161889558300,11.261558349609375,-0.037567138671875,0.197784423828125,0.713531494140625
1681265161899492400,11.271492431640626,-0.056915283203125,0.0374755859375,0.7957916259765625
1681265161909425200,11.281425048828124,0.330535888671875,-0.0739898681640625,0.7884521484375
1681265161919358200,11.291358154296875,1.128814697265625,-0.2977752685546875,0.6832275390625
1681265161929292300,11.301292236328125,1.7412872314453125,-0.6986541748046875,0.7156982421875
1681265161939225000,11.31122509765625,1.1907806396484375,-0.5431060791015625,0.543670654296875
1681265161949158100,11.321158203125,0.6738128662109375,-0.434967041015625,0.5649871826171875
1681265161959092500,11.331092529296875,0.3520050048828125,-0.71771240234375,0.893341064453125
1681265161969025300,11.341025390625,-0.085357666015625,-0.9405059814453125,1.0694732666015625
1681265161978959400,11.35095947265625,-0.1042327880859375,-0.80841064453125,0.7718963623046875
1681265161988892400,11.360892333984374,-0.026519775390625,-0.73797607421875,0.5619659423828125
1681265161998825200,11.3708251953125,-0.0973663330078125,-0.6681976318359375,0.4534759521484375
1681265162008759300,11.38075927734375,-0.2338409423828125,-0.63995361328125,0.4034576416015625
1681265162018692400,11.3906923828125,-0.381805419921875,-0.599609375,0.3990631103515625
1681265162028625200,11.400625244140626,-0.4093017578125,-0.391326904296875,0.3838043212890625
1681265162038559200,11.410559326171875,-0.344207763671875,-0.018707275390625,0.4016876220703125
1681265162048492300,11.4204921875,-0.182861328125,0.318450927734375,0.404815673828125
1681265162058425000,11.430425048828125,0.141632080078125,0.5644073486328125,0.503204345703125
1681265162068359400,11.440359375,0.1173858642578125,0.844818115234375,0.8190460205078125
1681265162078292500,11.45029248046875,-0.4929046630859375,1.5095672607421875,1.34320068359375
1681265162088225300,11.460225341796875,-1.1271820068359375,2.5716094970703125,2.148406982421875
1681265162098159400,11.470159423828125,-1.3369903564453125,3.9225616455078125,3.330169677734375
1681265162108092400,11.480092529296876,-1.0894317626953125,5.5250701904296875,4.3592071533203125
1681265162118025200,11.490025146484374,-0.37677001953125,7.2539215087890625,4.8787078857421875
1681265162127959300,11.499959228515625,0.9664764404296875,7.7604522705078125,4.063507080078125
1681265162137892400,11.509892333984375,3.120147705078125,5.3211669921875,1.69775390625
1681265162147825200,11.5198251953125,3.4738616943359375,2.672149658203125,0.5271759033203125
1681265162157759200,11.52975927734375,2.2666168212890625,1.63800048828125,0.3796844482421875
1681265162167692300,11.5396923828125,1.089141845703125,1.161834716796875,0.4131622314453125
1681265162177625000,11.549625,0.146148681640625,0.890594482421875,0.432830810546875
1681265162187559400,11.559559326171875,-0.5732269287109375,0.728668212890625,0.4221038818359375
1681265162197492500,11.569492431640626,-1.0139617919921875,0.60882568359375,0.3315277099609375
1681265162207426300,11.57942626953125,-1.264892578125,0.4991302490234375,0.193603515625
1681265162217359400,11.589359375,-1.5124053955078125,0.393524169921875,0.051361083984375
1681265162227292400,11.59929248046875,-2.0398101806640625,0.320587158203125,-0.068634033203125
1681265162237226200,11.609226318359376,-2.734100341796875,0.2952880859375,-0.180389404296875
1681265162247159300,11.6191591796875,-2.715606689453125,0.296875,-0.32110595703125
1681265162257092400,11.62909228515625,-1.031524658203125,-0.0674896240234375,-0.6959991455078125
1681265162267026200,11.639026123046875,2.8928375244140625,-1.47265625,-1.574951171875
1681265162276959200,11.648959228515626,3.445709228515625,-2.2267303466796875,-1.6224822998046875
1681265162286892300,11.658892333984374,0.506378173828125,-1.519622802734375,-0.7890625
1681265162296826400,11.668826416015625,0.6619110107421875,-1.352691650390625,-0.4581298828125
1681265162306759400,11.678759521484375,1.1668548583984375,-1.14093017578125,-0.1072998046875
1681265162316692500,11.6886923828125,1.1398773193359375,-0.716217041015625,0.2739105224609375
1681265162326626300,11.698626220703124,1.723297119140625,-0.2937469482421875,0.7735748291015625
1681265162336559400,11.708559326171875,-0.493865966796875,-0.125640869140625,0.9690704345703125
1681265162346492400,11.718492431640625,-1.8526763916015625,-0.0359649658203125,0.691741943359375
1681265162356426200,11.72842626953125,-1.56182861328125,-0.0196075439453125,0.5890655517578125
1681265162366359300,11.738359375,-0.8665771484375,0.018310546875,0.470977783203125
1681265162376293000,11.748293212890625,-0.3938140869140625,0.073333740234375,0.25567626953125
1681265162386226400,11.758226318359375,0.3673858642578125,0.164886474609375,-0.09814453125
1681265162396159500,11.768159423828125,2.058197021484375,0.7537994384765625,-0.7577056884765625
1681265162406093300,11.77809326171875,0.5743865966796875,0.57574462890625,-0.5630340576171875
1681265162416026400,11.7880263671875,-0.3390655517578125,0.3556976318359375,-0.41156005859375
1681265162425959400,11.79795947265625,-0.5385894775390625,0.5168914794921875,-0.4239501953125
1681265162435893200,11.807893310546875,-0.7519378662109375,0.745513916015625,-0.4821929931640625
1681265162445826300,11.817826416015626,-0.751251220703125,1.0845947265625,-0.5172576904296875
1681265162455759400,11.82775927734375,-0.80767822265625,1.6561737060546875,-0.532196044921875
1681265162465693200,11.837693115234375,-1.0402984619140625,2.5929718017578125,-0.531646728515625
1681265162475626200,11.847626220703125,-1.257232666015625,3.804931640625,-0.4431610107421875
1681265162485559300,11.857559326171875,-1.462066650390625,5.0448455810546875,-0.2428741455078125
1681265162495493400,11.867493408203124,-1.5431671142578125,5.729949951171875,0.0969085693359375
1681265162505426400,11.877426513671875,-1.3051910400390625,5.6198272705078125,0.46868896484375
1681265162515359500,11.887359375,-0.856903076171875,4.863525390625,0.81085205078125
1681265162525293300,11.897293212890625,0.7687530517578125,3.51910400390625,1.4095611572265625
1681265162535226400,11.907226318359376,3.2410888671875,2.33563232421875,1.9330291748046875
1681265162545160200,11.91716015625,1.701812744140625,2.0089111328125,1.4923858642578125
1681265162555093200,11.92709326171875,0.49859619140625,1.7494354248046875,1.0450439453125
1681265162565026300,11.9370263671875,0.1736602783203125,1.5739593505859375,0.9175567626953125
1681265162574960000,11.946960205078126,0.1692047119140625,1.2948150634765625,0.93536376953125
1681265162584893200,11.95689306640625,0.33551025390625,0.9498443603515625,0.9119415283203125
1681265162594826200,11.966826171875,0.3799896240234375,0.85400390625,0.9104156494140625
1681265162604760300,11.97676025390625,0.244598388671875,0.8999786376953125,0.9256591796875
1681265162614693400,11.986693359375,0.039398193359375,0.8216400146484375,0.9282989501953125
1681265162624626400,11.99662646484375,-0.2380523681640625,0.625762939453125,0.9659271240234375
1681265162634563800,12.006563720703125,-0.26873779296875,0.426605224609375,1.001251220703125
1681265162644497000,12.016496826171876,0.0429840087890625,0.262786865234375,1.037811279296875
1681265162654430000,12.026429931640624,0.81494140625,-0.24200439453125,1.1082305908203125
1681265162664363800,12.03636376953125,1.85528564453125,-0.6644287109375,0.971282958984375
1681265162674296800,12.046296875,1.462738037109375,-0.430572509765625,0.646148681640625
1681265162684231200,12.056231201171874,0.7414398193359375,-0.1905517578125,0.4990081787109375
1681265162694164000,12.0661640625,0.4201812744140625,-0.1736297607421875,0.5345001220703125
1681265162704097000,12.076096923828125,0.113433837890625,-0.4937896728515625,0.7360382080078125
1681265162714031000,12.086031005859375,-0.1800384521484375,-0.62347412109375,0.7057952880859375
1681265162723964000,12.0959638671875,-0.06451416015625,-0.4589996337890625,0.412445068359375
1681265162733897000,12.10589697265625,-0.04681396484375,-0.4409332275390625,0.296905517578125
1681265162743831000,12.1158310546875,-0.112152099609375,-0.4398651123046875,0.27685546875
1681265162753763800,12.125763916015625,-0.2080535888671875,-0.4732208251953125,0.303253173828125
1681265162763697000,12.13569677734375,-0.3340301513671875,-0.49066162109375,0.3322906494140625
1681265162773631000,12.145630859375,-0.3697509765625,-0.3618621826171875,0.3483123779296875
1681265162783563800,12.155563720703125,-0.275543212890625,-0.0571441650390625,0.4079132080078125
1681265162793496800,12.165496826171875,-0.083465576171875,0.1865081787109375,0.4606170654296875
1681265162803431000,12.175430908203126,0.0947113037109375,0.4017333984375,0.61383056640625
1681265162813364000,12.185364013671874,-0.0306243896484375,0.7324066162109375,0.95220947265625
1681265162823298000,12.195298095703125,-0.5557403564453125,1.407867431640625,1.548187255859375
1681265162833230800,12.20523095703125,-1.3606109619140625,2.620330810546875,2.50164794921875
1681265162843164000,12.215163818359375,-1.5525970458984375,4.137603759765625,3.81707763671875
1681265162853098000,12.225097900390624,-1.1124420166015625,5.826507568359375,4.8615570068359375
1681265162863030800,12.23503076171875,-0.1298065185546875,7.1222686767578125,4.9550933837890625
1681265162872963800,12.2449638671875,1.8039703369140625,6.9084320068359375,3.5147857666015625
1681265162882898000,12.25489794921875,3.858367919921875,4.36871337890625,1.426666259765625
1681265162892831000,12.2648310546875,3.453582763671875,2.243927001953125,0.6958770751953125
1681265162902764000,12.274763916015624,1.9994964599609375,1.4697723388671875,0.6350250244140625
1681265162912698000,12.284697998046875,0.8466796875,1.1082763671875,0.628143310546875
1681265162922631000,12.294630859375,-0.03717041015625,0.8955078125,0.599151611328125
1681265162932565000,12.30456494140625,-0.7548828125,0.767608642578125,0.5414886474609375
1681265162942498000,12.314498046875,-1.1580810546875,0.63134765625,0.4122772216796875
1681265162952430800,12.324430908203125,-1.43670654296875,0.511749267578125,0.2508392333984375
1681265162962365000,12.334364990234375,-1.7505035400390625,0.3835906982421875,0.094940185546875
1681265162972298000,12.344298095703126,-2.292144775390625,0.2928924560546875,-0.0076751708984375
1681265162982230800,12.354230712890624,-2.939727783203125,0.2317047119140625,-0.094573974609375
1681265162992164900,12.364164794921875,-2.8799896240234375,0.157806396484375,-0.2202606201171875
1681265163002098000,12.374097900390625,-0.7475128173828125,-0.26031494140625,-0.6787109375
1681265163012031000,12.384031005859375,3.2177581787109375,-1.679443359375,-1.6266937255859375
1681265163021965000,12.393965087890624,3.162841796875,-2.275299072265625,-1.5440521240234375
1681265163031898000,12.403898193359375,0.5774383544921875,-1.53143310546875,-0.792022705078125
1681265163041831000,12.413830810546875,0.472686767578125,-1.2992095947265625,-0.5106658935546875
1681265163051765000,12.423764892578125,1.02410888671875,-1.146881103515625,-0.2871551513671875
1681265163061698000,12.433697998046876,1.358428955078125,-0.8831787109375,0.035980224609375
1681265163071632000,12.4436318359375,1.75030517578125,-0.2537078857421875,0.55279541015625
1681265163081565000,12.45356494140625,0.5047454833984375,0.241912841796875,0.9861297607421875
1681265163091498000,12.463498046875,-1.5611419677734375,0.147308349609375,0.8764801025390625
1681265163101431800,12.473431884765626,-1.9644012451171875,0.0879058837890625,0.6340484619140625
1681265163111365000,12.483365234375,-1.1381988525390625,0.074615478515625,0.5096588134765625
1681265163121298200,12.493298095703125,-0.4520263671875,0.14019775390625,0.3356170654296875
1681265163131232000,12.50323193359375,0.184051513671875,0.271026611328125,0.0711669921875
1681265163141165000,12.5131650390625,0.73614501953125,0.5094451904296875,-0.1861572265625
1681265163151098000,12.52309814453125,0.6121673583984375,0.5955810546875,-0.292022705078125
1681265163161032000,12.533031982421875,0.089263916015625,0.5654144287109375,-0.344085693359375
1681265163170965000,12.542965087890625,-0.449188232421875,0.61322021484375,-0.3678741455078125
1681265163180898800,12.55289892578125,-0.7084197998046875,0.8601226806640625,-0.3945159912109375
1681265163190831900,12.562831787109374,-0.715087890625,1.187774658203125,-0.414459228515625
1681265163200765000,12.572764892578125,-0.780059814453125,1.7559661865234375,-0.4654083251953125
1681265163210699000,12.582698974609375,-0.953582763671875,2.6809844970703125,-0.494232177734375
1681265163220632000,12.592632080078126,-1.1244049072265625,3.8229827880859375,-0.3603668212890625
1681265163230565000,12.602565185546876,-1.3506011962890625,4.8355712890625,-0.0660247802734375
1681265163240499000,12.6124990234375,-1.462982177734375,5.3830108642578125,0.336883544921875
1681265163250432000,12.622431884765625,-1.321441650390625,5.3454132080078125,0.750946044921875
1681265163260365000,12.632364990234375,-0.8524627685546875,4.6519775390625,1.1268768310546875
1681265163270299000,12.642298828125,1.4618377685546875,3.4173431396484375,1.8087310791015625
1681265163280232000,12.65223193359375,2.072845458984375,2.610931396484375,1.8642120361328125
1681265163290166000,12.662166015625,0.6692962646484375,2.1149749755859375,1.32861328125
1681265163300098800,12.672098876953125,0.4773101806640625,1.727935791015625,0.9777984619140625
1681265163310032000,12.682031982421876,0.664794921875,1.339996337890625,0.9022674560546875
1681265163319966000,12.691966064453124,0.9145965576171875,0.9517059326171875,0.8587646484375
1681265163329899000,12.70189892578125,0.6962890625,0.8527679443359375,0.9050750732421875
1681265163339832000,12.71183203125,0.2917633056640625,0.9811859130859375,1.0073394775390625
1681265163349766100,12.72176611328125,0.072113037109375,1.0096588134765625,1.0308074951171875
1681265163359699000,12.731698974609374,-0.1007232666015625,0.8728790283203125,1.03424072265625
1681265163369632000,12.741632080078125,-0.271484375,0.654388427734375,1.02276611328125
1681265163379566000,12.751566162109375,-0.2068328857421875,0.45477294921875,1.01593017578125
1681265163389499000,12.761498779296875,0.094940185546875,0.1960906982421875,1.06634521484375
1681265163399433000,12.771432861328124,0.8306121826171875,-0.27252197265625,1.0627899169921875
1681265163409366000,12.781365966796875,1.809478759765625,-0.60101318359375,0.8834228515625
1681265163419298800,12.791298828125,1.5338134765625,-0.5048828125,0.6385498046875
1681265163429233200,12.801233154296876,0.73150634765625,-0.2563629150390625,0.494171142578125
1681265163439166000,12.811166015625,0.3632965087890625,-0.238861083984375,0.5194244384765625
1681265163449099000,12.82109912109375,0.140960693359375,-0.505645751953125,0.6808319091796875
1681265163459033000,12.831033203125,-0.12115478515625,-0.5816192626953125,0.644561767578125
1681265163468966000,12.8409658203125,-0.1037445068359375,-0.43408203125,0.3802337646484375
1681265163478899000,12.85089892578125,-0.08526611328125,-0.422515869140625,0.2445831298828125
1681265163488833000,12.8608330078125,-0.1387786865234375,-0.4038238525390625,0.205108642578125
1681265163498765800,12.870765869140625,-0.2485809326171875,-0.419281005859375,0.2057342529296875
1681265163508700000,12.880699951171875,-0.3182220458984375,-0.428741455078125,0.221832275390625
